# wavelength flux
3800.00380 9.77581e-18
3803.04390 1.00100e-17
3806.08400 1.00610e-17
3809.12410 1.04402e-17
3812.16420 1.03971e-17
3815.20430 9.60068e-18
3818.24440 9.23395e-18
3821.29460 9.54870e-18
3824.33470 9.58024e-18
3827.37480 9.10534e-18
3830.41490 9.79992e-18
3833.45500 1.11540e-17
3836.49510 1.09777e-17
3839.53520 1.00939e-17
3842.57530 9.21217e-18
3845.62550 9.59956e-18
3848.66560 1.02257e-17
3851.70570 1.04883e-17
3854.74580 1.04231e-17
3857.78590 1.02066e-17
3860.82600 9.72342e-18
3863.86610 9.82650e-18
3866.90620 9.29719e-18
3869.95640 9.69364e-18
3872.99650 1.06449e-17
3876.03660 1.07385e-17
3879.07670 9.99776e-18
3882.11680 9.46938e-18
3885.15690 9.64139e-18
3888.19700 1.02860e-17
3891.24720 1.01874e-17
3894.28730 1.05141e-17
3897.32740 1.01303e-17
3900.36750 9.48363e-18
3903.40760 9.99380e-18
3906.44770 1.04878e-17
3909.48780 1.05649e-17
3912.52790 1.02214e-17
3915.57810 9.48877e-18
3918.61820 1.04221e-17
3921.65830 1.05683e-17
3924.69840 1.04897e-17
3927.73850 1.19920e-17
3930.77860 1.14750e-17
3933.81870 9.47241e-18
3936.85880 9.90578e-18
3939.90900 9.54814e-18
3942.94910 9.72428e-18
3945.98920 9.89281e-18
3949.02930 9.91218e-18
3952.06940 1.03081e-17
3955.10950 1.00450e-17
3958.14960 1.06383e-17
3961.19980 1.00197e-17
3964.23990 9.70230e-18
3967.28000 9.08031e-18
3970.32010 9.06913e-18
3973.36020 8.58664e-18
3976.40030 9.28671e-18
3979.44040 1.03819e-17
3982.48050 1.00813e-17
3985.53070 9.78373e-18
3988.57080 1.03085e-17
3991.61090 9.72374e-18
3994.65100 1.04697e-17
3997.69110 9.25024e-18
4000.73120 9.73123e-18
4003.77130 9.64144e-18
4006.81140 1.00326e-17
4009.86160 1.16034e-17
4012.90170 1.14756e-17
4015.94180 1.02445e-17
4018.98190 9.64989e-18
4022.02200 9.88732e-18
4025.06210 9.91620e-18
4028.10220 1.08560e-17
4031.14230 1.11034e-17
4034.19250 1.05429e-17
4037.23260 1.06319e-17
4040.27270 1.06137e-17
4043.31280 9.84567e-18
4046.35290 1.07158e-17
4049.39300 1.03616e-17
4052.43310 1.03985e-17
4055.48330 1.08879e-17
4058.52340 1.05799e-17
4061.56350 1.06718e-17
4064.60360 1.09138e-17
4067.64370 1.07111e-17
4070.68380 1.12400e-17
4073.72390 1.10545e-17
4076.76400 1.10182e-17
4079.81420 1.10844e-17
4082.85430 1.10935e-17
4085.89440 1.07642e-17
4088.93450 1.13742e-17
4091.97460 1.13488e-17
4095.01470 1.10024e-17
4098.05480 1.08473e-17
4101.09490 1.07114e-17
4104.14510 1.09887e-17
4107.18520 1.13467e-17
4110.22530 1.13821e-17
4113.26540 1.18168e-17
4116.30550 1.12456e-17
4119.34560 1.12489e-17
4122.38570 1.15587e-17
4125.42580 1.13376e-17
4128.47600 1.10447e-17
4131.51610 1.10768e-17
4134.55620 1.11031e-17
4137.59630 1.11008e-17
4140.63640 1.22395e-17
4143.67650 1.45027e-17
4146.71660 1.34915e-17
4149.76680 1.13937e-17
4152.80690 1.08662e-17
4155.84700 1.10354e-17
4158.88710 1.14219e-17
4161.92720 1.13909e-17
4164.96730 1.11281e-17
4168.00740 1.09935e-17
4171.04750 1.11527e-17
4174.09770 1.13244e-17
4177.13780 1.13485e-17
4180.17790 1.16610e-17
4183.21800 1.12464e-17
4186.25810 1.11201e-17
4189.29820 1.08200e-17
4192.33830 1.16448e-17
4195.37840 1.10791e-17
4198.42860 1.07529e-17
4201.46870 1.15039e-17
4204.50880 1.13493e-17
4207.54890 1.07806e-17
4210.58900 1.07536e-17
4213.62910 1.11298e-17
4216.66920 1.03372e-17
4219.71940 1.14615e-17
4222.75950 1.09152e-17
4225.79960 1.14584e-17
4228.83970 1.09779e-17
4231.87980 1.14713e-17
4234.91990 1.09237e-17
4237.96000 1.13594e-17
4241.00010 1.13692e-17
4244.05030 1.11180e-17
4247.09040 1.20826e-17
4250.13050 1.23794e-17
4253.17060 1.19905e-17
4256.21070 1.20662e-17
4259.25080 1.17743e-17
4262.29090 1.22594e-17
4265.33100 1.21295e-17
4268.38120 1.19251e-17
4271.42130 1.19081e-17
4274.46140 1.24892e-17
4277.50150 1.17141e-17
4280.54160 1.17571e-17
4283.58170 1.20576e-17
4286.62180 1.18624e-17
4289.67200 1.16974e-17
4292.71210 1.17964e-17
4295.75220 1.19648e-17
4298.79230 1.22085e-17
4301.83240 1.12133e-17
4304.87250 1.19636e-17
4307.91260 1.23240e-17
4310.95270 1.23277e-17
4314.00290 1.22870e-17
4317.04300 1.25562e-17
4320.08310 1.24452e-17
4323.12320 1.22796e-17
4326.16330 1.20597e-17
4329.20340 1.21721e-17
4332.24350 1.25085e-17
4335.28360 1.24316e-17
4338.33380 1.24684e-17
4341.37390 1.22826e-17
4344.41400 1.23327e-17
4347.45410 1.28136e-17
4350.49420 1.22927e-17
4353.53430 1.26154e-17
4356.57440 1.27096e-17
4359.62460 1.28217e-17
4362.66470 1.31245e-17
4365.70480 1.33283e-17
4368.74490 1.27867e-17
4371.78500 1.36404e-17
4374.82510 1.32837e-17
4377.86520 1.33253e-17
4380.90530 1.33670e-17
4383.95550 1.34086e-17
4386.99560 1.34501e-17
4390.03570 1.34917e-17
4393.07580 1.35332e-17
4396.11590 1.35747e-17
4399.15600 1.36162e-17
4402.19610 1.36576e-17
4405.23620 1.36991e-17
4408.28640 1.37405e-17
4411.32650 1.37818e-17
4414.36660 1.38232e-17
4417.40670 1.38645e-17
4420.44680 1.39058e-17
4423.48690 1.39471e-17
4426.52700 1.39883e-17
4429.56710 1.40295e-17
4432.61730 1.40707e-17
4435.65740 1.41119e-17
4438.69750 1.41530e-17
4441.73760 1.44428e-17
4444.77770 1.40236e-17
4447.81780 1.40124e-17
4450.85790 1.40131e-17
4453.90810 1.33708e-17
4456.94820 1.37574e-17
4459.98830 1.41451e-17
4463.02840 1.42175e-17
4466.06850 1.38086e-17
4469.10860 1.34324e-17
4472.14870 1.32850e-17
4475.18880 1.36039e-17
4478.23900 1.40125e-17
4481.27910 1.38730e-17
4484.31920 1.31792e-17
4487.35930 1.38426e-17
4490.39940 1.37436e-17
4493.43950 1.40546e-17
4496.47960 1.45157e-17
4499.51970 1.39756e-17
4502.56990 1.42315e-17
4505.61000 1.43051e-17
4508.65010 1.41112e-17
4511.69020 1.40250e-17
4514.73030 1.43328e-17
4517.77040 1.45747e-17
4520.81050 1.45979e-17
4523.85060 1.39442e-17
4526.90080 1.45320e-17
4529.94090 1.45122e-17
4532.98100 1.38397e-17
4536.02110 1.44708e-17
4539.06120 1.47229e-17
4542.10130 1.47617e-17
4545.14140 1.41911e-17
4548.19160 1.45302e-17
4551.23170 1.45752e-17
4554.27180 1.45582e-17
4557.31190 1.48789e-17
4560.35200 1.48103e-17
4563.39210 1.50838e-17
4566.43220 1.51298e-17
4569.47230 1.47709e-17
4572.52250 1.49556e-17
4575.56260 1.46993e-17
4578.60270 1.49539e-17
4581.64280 1.51194e-17
4584.68290 1.48543e-17
4587.72300 1.48755e-17
4590.76310 1.46913e-17
4593.80320 1.49394e-17
4596.85340 1.44547e-17
4599.89350 1.42072e-17
4602.93360 1.43516e-17
4605.97370 1.40521e-17
4609.01380 1.43717e-17
4612.05390 1.46124e-17
4615.09400 1.45559e-17
4618.14420 1.41319e-17
4621.18430 1.39997e-17
4624.22440 1.37974e-17
4627.26450 1.41912e-17
4630.30460 1.37793e-17
4633.34470 1.36492e-17
4636.38480 1.36901e-17
4639.42490 1.37294e-17
4642.47510 1.37049e-17
4645.51520 1.37714e-17
4648.55530 1.38083e-17
4651.59540 1.35521e-17
4654.63550 1.37399e-17
4657.67560 1.35391e-17
4660.71570 1.39783e-17
4663.75580 1.38147e-17
4666.80600 1.37688e-17
4669.84610 1.38766e-17
4672.88620 1.36149e-17
4675.92630 1.38897e-17
4678.96640 1.39710e-17
4682.00650 1.38345e-17
4685.04660 1.34046e-17
4688.09680 1.31741e-17
4691.13690 1.37401e-17
4694.17700 1.37006e-17
4697.21710 1.36849e-17
4700.25720 1.32208e-17
4703.29730 1.30498e-17
4706.33740 1.34686e-17
4709.37750 1.37665e-17
4712.42770 1.33296e-17
4715.46780 1.36690e-17
4718.50790 1.37723e-17
4721.54800 1.34744e-17
4724.58810 1.30840e-17
4727.62820 1.34626e-17
4730.66830 1.35590e-17
4733.70840 1.35261e-17
4736.75860 1.31290e-17
4739.79870 1.35126e-17
4742.83880 1.34793e-17
4745.87890 1.35076e-17
4748.91900 1.30151e-17
4751.95910 1.31680e-17
4754.99920 1.30254e-17
4758.04940 1.28954e-17
4761.08950 1.30468e-17
4764.12960 1.29262e-17
4767.16970 1.29407e-17
4770.20980 1.28577e-17
4773.24990 1.29040e-17
4776.29000 1.27113e-17
4779.33010 1.25747e-17
4782.38030 1.26874e-17
4785.42040 1.26245e-17
4788.46050 1.27182e-17
4791.50060 1.25186e-17
4794.54070 1.22616e-17
4797.58080 1.22305e-17
4800.62090 1.22072e-17
4803.66100 1.26694e-17
4806.71120 1.27465e-17
4809.75130 1.23289e-17
4812.79140 1.26823e-17
4815.83150 1.28648e-17
4818.87160 1.31407e-17
4821.91170 1.27063e-17
4824.95180 1.29371e-17
4827.99190 1.28346e-17
4831.04210 1.25835e-17
4834.08220 1.30166e-17
4837.12230 1.32721e-17
4840.16240 1.33609e-17
4843.20250 1.31750e-17
4846.24260 1.32602e-17
4849.28270 1.32103e-17
4852.33290 1.34304e-17
4855.37300 1.31701e-17
4858.41310 1.30436e-17
4861.45320 1.35509e-17
4864.49330 1.33380e-17
4867.53340 1.32266e-17
4870.57350 1.33000e-17
4873.61360 1.34389e-17
4876.66380 1.35331e-17
4879.70390 1.31829e-17
4882.74400 1.32264e-17
4885.78410 1.35091e-17
4888.82420 1.35979e-17
4891.86430 1.35664e-17
4894.90440 1.35349e-17
4897.94450 1.35034e-17
4900.99470 1.34720e-17
4904.03480 1.34405e-17
4907.07490 1.34091e-17
4910.11500 1.33777e-17
4913.15510 1.33463e-17
4916.19520 1.33149e-17
4919.23530 1.32836e-17
4922.27540 1.32522e-17
4925.32560 1.32209e-17
4928.36570 1.31896e-17
4931.40580 1.36747e-17
4934.44590 1.34350e-17
4937.48600 1.34450e-17
4940.52610 1.37650e-17
4943.56620 1.36710e-17
4946.61640 1.38630e-17
4949.65650 1.39885e-17
4952.69660 1.39056e-17
4955.73670 1.43375e-17
4958.77680 1.43188e-17
4961.81690 1.41247e-17
4964.85700 1.43104e-17
4967.89710 1.46518e-17
4970.94730 1.49790e-17
4973.98740 1.50598e-17
4977.02750 1.47084e-17
4980.06760 1.53207e-17
4983.10770 1.50310e-17
4986.14780 1.51720e-17
4989.18790 1.52240e-17
4992.22800 1.53597e-17
4995.27820 1.54954e-17
4998.31830 1.56309e-17
5001.35840 1.57664e-17
5004.39850 1.59018e-17
5007.43860 1.60372e-17
5010.47870 1.61725e-17
5013.51880 1.63077e-17
5016.56900 1.64428e-17
5019.60910 1.65779e-17
5022.64920 1.67129e-17
5025.68930 1.68478e-17
5028.72940 1.69827e-17
5031.76950 1.69646e-17
5034.80960 1.72392e-17
5037.84970 1.74481e-17
5040.89990 1.75411e-17
5043.94000 1.76339e-17
5046.98010 1.77268e-17
5050.02020 1.78195e-17
5053.06030 1.79123e-17
5056.10040 1.80050e-17
5059.14050 1.80976e-17
5062.18060 1.81902e-17
5065.23080 1.82828e-17
5068.27090 1.83753e-17
5071.31100 1.84678e-17
5074.35110 1.85602e-17
5077.39120 1.86526e-17
5080.43130 1.89363e-17
5083.47140 1.87649e-17
5086.52160 1.87295e-17
5089.56170 1.86577e-17
5092.60180 1.88181e-17
5095.64190 1.88637e-17
5098.68200 1.88838e-17
5101.72210 1.90622e-17
5104.76220 1.92908e-17
5107.80230 1.92879e-17
5110.85250 1.96516e-17
5113.89260 1.96792e-17
5116.93270 1.93290e-17
5119.97280 1.94428e-17
5123.01290 2.01784e-17
5126.05300 1.98524e-17
5129.09310 1.98732e-17
5132.13320 1.98466e-17
5135.18340 2.00825e-17
5138.22350 2.03697e-17
5141.26360 2.02294e-17
5144.30370 2.03818e-17
5147.34380 2.01548e-17
5150.38390 2.04346e-17
5153.42400 2.06069e-17
5156.46410 2.04613e-17
5159.51430 2.04854e-17
5162.55440 2.09052e-17
5165.59450 2.08439e-17
5168.63460 2.05689e-17
5171.67470 2.08762e-17
5174.71480 2.09363e-17
5177.75490 2.10952e-17
5180.80510 2.10005e-17
5183.84520 2.14637e-17
5186.88530 2.14298e-17
5189.92540 2.15759e-17
5192.96550 2.18173e-17
5196.00560 2.12209e-17
5199.04570 2.16394e-17
5202.08580 2.17026e-17
5205.13600 2.13409e-17
5208.17610 2.17696e-17
5211.21620 2.14268e-17
5214.25630 2.16427e-17
5217.29640 2.16342e-17
5220.33650 2.15653e-17
5223.37660 2.16582e-17
5226.41670 2.15241e-17
5229.46690 2.19405e-17
5232.50700 2.20221e-17
5235.54710 2.20174e-17
5238.58720 2.18295e-17
5241.62730 2.22083e-17
5244.66740 2.20275e-17
5247.70750 2.19322e-17
5250.74760 2.19442e-17
5253.79780 2.18168e-17
5256.83790 2.16162e-17
5259.87800 2.14126e-17
5262.91810 2.14267e-17
5265.95820 2.15441e-17
5268.99830 2.15673e-17
5272.03840 2.13918e-17
5275.08860 2.16074e-17
5278.12870 2.13195e-17
5281.16880 2.15398e-17
5284.20890 2.12676e-17
5287.24900 2.13884e-17
5290.28910 2.12091e-17
5293.32920 2.10326e-17
5296.36930 2.10835e-17
5299.41950 2.10760e-17
5302.45960 2.10591e-17
5305.49970 2.10218e-17
5308.53980 2.13480e-17
5311.57990 2.13026e-17
5314.62000 2.14685e-17
5317.66010 2.07701e-17
5320.70020 2.07363e-17
5323.75040 2.10976e-17
5326.79050 2.08547e-17
5329.83060 2.08007e-17
5332.87070 2.07017e-17
5335.91080 2.08779e-17
5338.95090 2.08904e-17
5341.99100 2.04104e-17
5345.04120 2.08893e-17
5348.08130 2.07812e-17
5351.12140 2.07090e-17
5354.16150 2.06548e-17
5357.20160 2.05377e-17
5360.24170 2.06347e-17
5363.28180 2.03452e-17
5366.32190 2.06849e-17
5369.37210 2.08102e-17
5372.41220 2.04475e-17
5375.45230 2.00511e-17
5378.49240 2.01628e-17
5381.53250 2.00504e-17
5384.57260 1.99751e-17
5387.61270 1.99762e-17
5390.66290 1.99322e-17
5393.70300 1.95119e-17
5396.74310 1.95652e-17
5399.78320 1.93196e-17
5402.82330 1.90224e-17
5405.86340 1.90991e-17
5408.90350 1.87914e-17
5411.94360 1.87435e-17
5414.99380 1.91181e-17
5418.03390 1.86368e-17
5421.07400 1.85154e-17
5424.11410 1.83251e-17
5427.15420 1.83044e-17
5430.19430 1.82240e-17
5433.23440 1.81506e-17
5436.27450 1.83512e-17
5439.32470 1.84782e-17
5442.36480 1.79869e-17
5445.40490 1.80334e-17
5448.44500 1.80229e-17
5451.48510 1.80582e-17
5454.52520 1.78552e-17
5457.56530 1.79867e-17
5460.60540 1.80847e-17
5463.65560 1.82765e-17
5466.69570 1.78538e-17
5469.73580 1.78584e-17
5472.77590 1.76341e-17
5475.81600 1.77295e-17
5478.85610 1.79288e-17
5481.89620 1.78956e-17
5484.94640 1.79746e-17
5487.98650 1.81612e-17
5491.02660 1.76644e-17
5494.06670 1.78053e-17
5497.10680 1.78346e-17
5500.14690 1.75070e-17
5503.18700 1.76765e-17
5506.22710 1.77373e-17
5509.27730 1.77195e-17
5512.31740 1.76854e-17
5515.35750 1.80574e-17
5518.39760 1.82299e-17
5521.43770 1.79992e-17
5524.47780 1.82779e-17
5527.51790 1.82202e-17
5530.55800 1.81395e-17
5533.60820 1.80443e-17
5536.64830 1.77917e-17
5539.68840 1.79420e-17
5542.72850 1.76444e-17
5545.76860 1.72636e-17
5548.80870 1.76327e-17
5551.84880 1.78781e-17
5554.88890 1.73856e-17
5557.93910 1.75635e-17
5560.97920 1.78599e-17
5564.01930 1.76297e-17
5567.05940 1.77098e-17
5570.09950 1.80573e-17
5573.13960 1.77659e-17
5576.17970 1.71531e-17
5579.22990 1.75694e-17
5582.27000 1.80054e-17
5585.31010 1.79367e-17
5588.35020 1.78043e-17
5591.39030 1.74090e-17
5594.43040 1.77345e-17
5597.47050 1.76948e-17
5600.51060 1.76436e-17
5603.56080 1.76817e-17
5606.60090 1.78908e-17
5609.64100 1.78369e-17
5612.68110 1.78436e-17
5615.72120 1.79770e-17
5618.76130 1.77905e-17
5621.80140 1.78388e-17
5624.84150 1.79069e-17
5627.89170 1.77799e-17
5630.93180 1.80811e-17
5633.97190 1.83494e-17
5637.01200 1.82705e-17
5640.05210 1.82169e-17
5643.09220 1.81626e-17
5646.13230 1.81937e-17
5649.17240 1.81592e-17
5652.22260 1.77584e-17
5655.26270 1.82178e-17
5658.30280 1.85315e-17
5661.34290 1.82945e-17
5664.38300 1.81677e-17
5667.42310 1.81637e-17
5670.46320 1.80582e-17
5673.51340 1.82215e-17
5676.55350 1.83608e-17
5679.59360 1.83806e-17
5682.63370 1.82346e-17
5685.67380 1.80120e-17
5688.71390 1.83755e-17
5691.75400 1.81709e-17
5694.79410 1.84539e-17
5697.84430 1.83387e-17
5700.88440 1.82789e-17
5703.92450 1.83578e-17
5706.96460 1.83198e-17
5710.00470 1.80214e-17
5713.04480 1.80642e-17
5716.08490 1.82882e-17
5719.12500 1.81521e-17
5722.17520 1.80969e-17
5725.21530 1.83782e-17
5728.25540 1.83314e-17
5731.29550 1.78729e-17
5734.33560 1.78716e-17
5737.37570 1.83126e-17
5740.41580 1.81036e-17
5743.46600 1.79949e-17
5746.50610 1.81925e-17
5749.54620 1.82344e-17
5752.58630 1.85310e-17
5755.62640 1.85772e-17
5758.66650 1.82564e-17
5761.70660 1.81714e-17
5764.74670 1.80626e-17
5767.79690 1.85641e-17
5770.83700 1.85830e-17
5773.87710 1.82375e-17
5776.91720 1.85695e-17
5779.95730 1.88315e-17
5782.99740 1.82183e-17
5786.03750 1.85643e-17
5789.07760 1.85421e-17
5792.12780 1.84947e-17
5795.16790 1.87145e-17
5798.20800 1.85306e-17
5801.24810 1.82141e-17
5804.28820 1.84356e-17
5807.32830 1.84641e-17
5810.36840 1.86325e-17
5813.40850 1.88094e-17
5816.45870 1.86611e-17
5819.49880 1.85198e-17
5822.53890 1.83992e-17
5825.57900 1.86134e-17
5828.61910 1.86588e-17
5831.65920 1.85433e-17
5834.69930 1.84954e-17
5837.74950 1.83060e-17
5840.78960 1.78860e-17
5843.82970 1.84026e-17
5846.86980 1.85977e-17
5849.90990 1.87416e-17
5852.95000 1.84834e-17
5855.99010 1.85234e-17
5859.03020 1.84420e-17
5862.08040 1.83927e-17
5865.12050 1.85336e-17
5868.16060 1.84904e-17
5871.20070 1.81798e-17
5874.24080 1.78754e-17
5877.28090 1.80624e-17
5880.32100 1.81263e-17
5883.37120 1.78529e-17
5886.41130 1.70664e-17
5889.45140 1.64387e-17
5892.49150 1.64386e-17
5895.53160 1.68606e-17
5898.57170 1.67770e-17
5901.61180 1.67854e-17
5904.65190 1.67041e-17
5907.70210 1.66227e-17
5910.74220 1.65414e-17
5913.78230 1.64601e-17
5916.82240 1.63789e-17
5919.86250 1.62977e-17
5922.90260 1.62165e-17
5925.94270 1.61353e-17
5928.98280 1.60542e-17
5932.03300 1.59731e-17
5935.07310 1.58921e-17
5938.11320 1.58110e-17
5941.15330 1.57300e-17
5944.19340 1.56490e-17
5947.23350 1.55681e-17
5950.27360 1.54872e-17
5953.31370 1.54063e-17
5956.36390 1.53254e-17
5959.40400 1.52446e-17
5962.44410 1.51637e-17
5965.48420 1.50830e-17
5968.52430 1.49255e-17
5971.56440 1.49055e-17
5974.60450 1.49104e-17
5977.65470 1.49202e-17
5980.69480 1.51447e-17
5983.73490 1.49920e-17
5986.77500 1.50340e-17
5989.81510 1.51691e-17
5992.85520 1.50550e-17
5995.89530 1.48020e-17
5998.93540 1.50758e-17
6001.98560 1.55251e-17
6005.02570 1.53133e-17
6008.06580 1.49088e-17
6011.10590 1.51774e-17
6014.14600 1.53064e-17
6017.18610 1.53366e-17
6020.22620 1.53490e-17
6023.26630 1.53331e-17
6026.31650 1.53284e-17
6029.35660 1.53309e-17
6032.39670 1.53304e-17
6035.43680 1.52976e-17
6038.47690 1.53625e-17
6041.51700 1.56343e-17
6044.55710 1.55349e-17
6047.60730 1.55131e-17
6050.64740 1.53790e-17
6053.68750 1.54759e-17
6056.72760 1.56329e-17
6059.76770 1.54891e-17
6062.80780 1.55028e-17
6065.84790 1.59250e-17
6068.88800 1.57347e-17
6071.93820 1.54207e-17
6074.97830 1.55349e-17
6078.01840 1.53302e-17
6081.05850 1.55360e-17
6084.09860 1.55877e-17
6087.13870 1.54936e-17
6090.17880 1.54774e-17
6093.21890 1.56033e-17
6096.26910 1.53527e-17
6099.30920 1.55153e-17
6102.34930 1.55466e-17
6105.38940 1.56473e-17
6108.42950 1.57181e-17
6111.46960 1.55913e-17
6114.50970 1.57442e-17
6117.54980 1.59728e-17
6120.60000 1.57895e-17
6123.64010 1.59354e-17
6126.68020 1.58641e-17
6129.72030 1.59661e-17
6132.76040 1.59119e-17
6135.80050 1.56577e-17
6138.84060 1.59512e-17
6141.89080 1.57323e-17
6144.93090 1.56572e-17
6147.97100 1.58524e-17
6151.01110 1.55432e-17
6154.05120 1.56950e-17
6157.09130 1.58541e-17
6160.13140 1.56602e-17
6163.17150 1.56599e-17
6166.22170 1.60106e-17
6169.26180 1.58894e-17
6172.30190 1.58293e-17
6175.34200 1.61120e-17
6178.38210 1.58556e-17
6181.42220 1.62553e-17
6184.46230 1.60816e-17
6187.50240 1.63216e-17
6190.55260 1.64853e-17
6193.59270 1.64402e-17
6196.63280 1.62694e-17
6199.67290 1.62876e-17
6202.71300 1.62803e-17
6205.75310 1.66441e-17
6208.79320 1.70958e-17
6211.83330 1.68590e-17
6214.88350 1.65058e-17
6217.92360 1.68485e-17
6220.96370 1.68438e-17
6224.00380 1.70016e-17
6227.04390 1.69017e-17
6230.08400 1.70984e-17
6233.12410 1.70893e-17
6236.17430 1.69343e-17
6239.21440 1.72449e-17
6242.25450 1.72976e-17
6245.29460 1.76784e-17
6248.33470 1.74105e-17
6251.37480 1.73202e-17
6254.41490 1.72487e-17
6257.45500 1.76582e-17
6260.50520 1.76501e-17
6263.54530 1.73415e-17
6266.58540 1.75206e-17
6269.62550 1.75527e-17
6272.66560 1.76281e-17
6275.70570 1.77893e-17
6278.74580 1.78273e-17
6281.78590 1.78889e-17
6284.83610 1.76318e-17
6287.87620 1.80601e-17
6290.91630 1.81084e-17
6293.95640 1.82105e-17
6296.99650 1.83250e-17
6300.03660 1.81250e-17
6303.07670 1.80712e-17
6306.12690 1.84714e-17
6309.16700 1.86311e-17
6312.20710 1.83766e-17
6315.24720 1.80234e-17
6318.28730 1.77012e-17
6321.32740 1.80720e-17
6324.36750 1.82452e-17
6327.40760 1.80512e-17
6330.45780 1.80840e-17
6333.49790 1.75854e-17
6336.53800 1.80374e-17
6339.57810 1.81109e-17
6342.61820 1.77972e-17
6345.65830 1.70670e-17
6348.69840 1.68206e-17
6351.73850 1.71382e-17
6354.78870 1.80068e-17
6357.82880 1.81976e-17
6360.86890 1.82718e-17
6363.90900 1.86762e-17
6366.94910 1.85711e-17
6369.98920 1.83240e-17
6373.02930 1.81931e-17
6376.06940 1.81744e-17
6379.11960 1.80290e-17
6382.15970 1.81262e-17
6385.19980 1.81430e-17
6388.23990 1.83060e-17
6391.28000 1.83125e-17
6394.32010 1.79662e-17
6397.36020 1.77281e-17
6400.41040 1.81154e-17
6403.45050 1.81675e-17
6406.49060 1.80301e-17
6409.53070 1.80820e-17
6412.57080 1.84045e-17
6415.61090 1.83410e-17
6418.65100 1.80678e-17
6421.69110 1.80703e-17
6424.74130 1.82746e-17
6427.78140 1.82265e-17
6430.82150 1.84304e-17
6433.86160 1.81447e-17
6436.90170 1.80829e-17
6439.94180 1.79791e-17
6442.98190 1.81477e-17
6446.03210 1.82328e-17
6449.07220 1.81643e-17
6452.11230 1.82212e-17
6455.15240 1.80398e-17
6458.19250 1.80180e-17
6461.23260 1.79474e-17
6464.27270 1.84631e-17
6467.31280 1.80595e-17
6470.35290 1.80778e-17
6473.40310 1.79532e-17
6476.44320 1.79365e-17
6479.48330 1.81520e-17
6482.52340 1.81168e-17
6485.56350 1.80515e-17
6488.60360 1.77971e-17
6491.64370 1.81678e-17
6494.69390 1.78177e-17
6497.73400 1.77530e-17
6500.77410 1.79553e-17
6503.81420 1.75746e-17
6506.85430 1.72849e-17
6509.89440 1.71843e-17
6512.93450 1.74533e-17
6515.97460 1.72613e-17
6519.02480 1.73297e-17
6522.06490 1.71947e-17
6525.10500 1.71393e-17
6528.14510 1.71650e-17
6531.18520 1.71483e-17
6534.22530 1.72409e-17
6537.26540 1.72879e-17
6540.31560 1.74016e-17
6543.35570 1.72007e-17
6546.39580 1.72053e-17
6549.43590 1.72019e-17
6552.47600 1.73479e-17
6555.51610 1.71604e-17
6558.55620 1.68570e-17
6561.59630 1.73161e-17
6564.64650 1.75064e-17
6567.68660 1.74086e-17
6570.72670 1.72644e-17
6573.76680 1.72264e-17
6576.80690 1.73019e-17
6579.84700 1.74613e-17
6582.88710 1.74218e-17
6585.92720 1.75223e-17
6588.97740 1.70617e-17
6592.01750 1.70023e-17
6595.05760 1.72956e-17
6598.09770 1.73277e-17
6601.13780 1.73598e-17
6604.17790 1.73919e-17
6607.21800 1.74239e-17
6610.25810 1.74560e-17
6613.30830 1.74880e-17
6616.34840 1.75201e-17
6619.38850 1.75521e-17
6622.42860 1.75841e-17
6625.46870 1.76162e-17
6628.50880 1.76482e-17
6631.54890 1.76802e-17
6634.59910 1.77122e-17
6637.63920 1.76446e-17
6640.67930 1.75770e-17
6643.71940 1.75095e-17
6646.75950 1.74420e-17
6649.79960 1.73744e-17
6652.83970 1.73069e-17
6655.87980 1.72395e-17
6658.93000 1.71720e-17
6661.97010 1.71045e-17
6665.01020 1.70371e-17
6668.05030 1.69697e-17
6671.09040 1.71128e-17
6674.13050 1.66009e-17
6677.17060 1.68889e-17
6680.21070 1.67210e-17
6683.26090 1.65012e-17
6686.30100 1.65888e-17
6689.34110 1.63187e-17
6692.38120 1.63131e-17
6695.42130 1.62104e-17
6698.46140 1.60426e-17
6701.50150 1.61703e-17
6704.55170 1.60240e-17
6707.59180 1.59525e-17
6710.63190 1.58799e-17
6713.67200 1.61635e-17
6716.71210 1.60582e-17
6719.75220 1.58636e-17
6722.79230 1.60750e-17
6725.83240 1.55745e-17
6728.88260 1.56623e-17
6731.92270 1.58593e-17
6734.96280 1.56146e-17
6738.00290 1.57739e-17
6741.04300 1.58595e-17
6744.08310 1.62377e-17
6747.12320 1.63300e-17
6750.16330 1.63738e-17
6753.21350 1.60718e-17
6756.25360 1.57099e-17
6759.29370 1.55274e-17
6762.33380 1.59094e-17
6765.37390 1.55403e-17
6768.41400 1.60419e-17
6771.45410 1.65434e-17
6774.49420 1.70448e-17
6777.54440 1.75461e-17
6780.58450 1.73613e-17
6783.62460 1.71766e-17
6786.66470 1.69919e-17
6789.70480 1.68073e-17
6792.74490 1.66227e-17
6795.78500 1.64382e-17
6798.83520 1.62536e-17
6801.87530 1.60692e-17
6804.91540 1.58848e-17
6807.95550 1.57004e-17
6810.99560 1.55161e-17
6814.03570 1.53318e-17
6817.07580 1.51475e-17
6820.11590 1.50036e-17
6823.16610 1.51764e-17
6826.20620 1.52418e-17
6829.24630 1.53118e-17
6832.28640 1.52304e-17
6835.32650 1.50803e-17
6838.36660 1.52082e-17
6841.40670 1.50007e-17
6844.45690 1.49198e-17
6847.49700 1.49133e-17
6850.53710 1.49068e-17
6853.57720 1.49003e-17
6856.61730 1.48938e-17
6859.65740 1.48872e-17
6862.69750 1.48807e-17
6865.73760 1.48742e-17
6868.77770 1.48677e-17
6871.82790 1.48612e-17
6874.86800 1.48547e-17
6877.90810 1.48482e-17
6880.94820 1.48417e-17
6883.98830 1.48352e-17
6887.02840 1.48286e-17
6890.06850 1.48221e-17
6893.11870 1.48156e-17
6896.15880 1.48091e-17
6899.19890 1.48026e-17
6902.23900 1.47961e-17
6905.27910 1.47896e-17
6908.31920 1.47831e-17
6911.35930 1.47766e-17
6914.39940 1.47701e-17
6917.44960 1.47636e-17
6920.48970 1.47571e-17
6923.52980 1.47506e-17
6926.56990 1.47441e-17
6929.61000 1.47376e-17
6932.65010 1.47312e-17
6935.69020 1.47247e-17
6938.74040 1.44556e-17
6941.78050 1.47059e-17
6944.82060 1.47868e-17
6947.86070 1.46461e-17
6950.90080 1.44616e-17
6953.94090 1.44322e-17
6956.98100 1.43337e-17
6960.02110 1.48165e-17
6963.06120 1.45125e-17
6966.11140 1.44650e-17
6969.15150 1.42956e-17
6972.19160 1.45619e-17
6975.23170 1.43155e-17
6978.27180 1.45185e-17
6981.31190 1.45125e-17
6984.35200 1.42980e-17
6987.40220 1.43363e-17
6990.44230 1.44494e-17
6993.48240 1.44303e-17
6996.52250 1.44919e-17
6999.56260 1.45896e-17
7002.60270 1.43621e-17
7005.64280 1.45312e-17
7008.68290 1.44244e-17
7011.73310 1.42239e-17
7014.77320 1.41359e-17
7017.81330 1.47118e-17
7020.85340 1.45873e-17
7023.89350 1.43804e-17
7026.93360 1.43962e-17
7029.97370 1.46304e-17
7033.02390 1.45681e-17
7036.06400 1.43171e-17
7039.10410 1.40947e-17
7042.14420 1.42798e-17
7045.18430 1.41595e-17
7048.22440 1.41083e-17
7051.26450 1.40674e-17
7054.30460 1.39861e-17
7057.35480 1.39535e-17
7060.39490 1.37381e-17
7063.43500 1.39831e-17
7066.47510 1.40411e-17
7069.51520 1.39596e-17
7072.55530 1.37630e-17
7075.59540 1.39053e-17
7078.63550 1.37065e-17
7081.68570 1.39424e-17
7084.72580 1.40280e-17
7087.76590 1.38270e-17
7090.80600 1.41785e-17
7093.84610 1.41417e-17
7096.88620 1.40261e-17
7099.92630 1.40093e-17
7102.97650 1.37622e-17
7106.01660 1.38091e-17
7109.05670 1.37538e-17
7112.09680 1.38035e-17
7115.13690 1.38431e-17
7118.17700 1.36313e-17
7121.21710 1.37990e-17
7124.25720 1.36467e-17
7127.30740 1.36560e-17
7130.34750 1.33525e-17
7133.38760 1.33455e-17
7136.42770 1.37505e-17
7139.46780 1.40917e-17
7142.50790 1.35272e-17
7145.54800 1.29785e-17
7148.58810 1.29222e-17
7151.63830 1.32524e-17
7154.67840 1.32113e-17
7157.71850 1.34012e-17
7160.75860 1.30546e-17
7163.79870 1.30361e-17
7166.83880 1.28332e-17
7169.87890 1.29839e-17
7172.91900 1.29664e-17
7175.96920 1.28986e-17
7179.00930 1.24775e-17
7182.04940 1.25636e-17
7185.08950 1.28430e-17
7188.12960 1.25725e-17
7191.16970 1.23758e-17
7194.20980 1.26619e-17
7197.26000 1.23276e-17
7200.30010 1.19987e-17
7203.34020 1.23080e-17
7206.38030 1.26614e-17
7209.42040 1.28250e-17
7212.46050 1.24782e-17
7215.50060 1.20882e-17
7218.54070 1.18646e-17
7221.59090 1.15463e-17
7224.63100 1.14898e-17
7227.67110 1.16905e-17
7230.71120 1.14342e-17
7233.75130 1.17315e-17
7236.79140 1.15202e-17
7239.83150 1.12201e-17
7242.88170 1.15493e-17
7245.92180 1.13140e-17
7248.96190 1.13021e-17
7252.00200 1.12992e-17
7255.04210 1.13089e-17
7258.08220 1.11511e-17
7261.12230 1.10889e-17
7264.16240 1.08023e-17
7267.20250 1.10174e-17
7270.25270 1.09730e-17
7273.29280 1.07820e-17
7276.33290 1.08012e-17
7279.37300 1.09202e-17
7282.41310 1.09635e-17
7285.45320 1.06913e-17
7288.49330 1.07924e-17
7291.54350 1.07424e-17
7294.58360 1.10040e-17
7297.62370 1.06802e-17
7300.66380 1.03472e-17
7303.70390 1.07078e-17
7306.74400 1.06434e-17
7309.78410 1.07978e-17
7312.82420 1.08481e-17
7315.87440 1.08944e-17
7318.91450 1.08018e-17
7321.95460 1.05351e-17
7324.99470 1.06536e-17
7328.03480 1.02899e-17
7331.07490 1.02342e-17
7334.11500 1.02391e-17
7337.16520 1.01899e-17
7340.20530 9.72699e-18
7343.24540 9.94803e-18
7346.28550 1.01244e-17
7349.32560 9.92153e-18
7352.36570 1.00100e-17
7355.40580 1.01732e-17
7358.44590 1.01945e-17
7361.49610 1.00658e-17
7364.53620 9.81560e-18
7367.57630 9.92915e-18
7370.61640 1.00705e-17
7373.65650 9.95004e-18
7376.69660 1.00088e-17
7379.73670 1.00483e-17
7382.77680 9.96223e-18
7385.82700 1.00892e-17
7388.86710 9.90859e-18
7391.90720 1.00313e-17
7394.94730 1.01276e-17
7397.98740 1.02063e-17
7401.02750 1.00158e-17
7404.06760 1.02369e-17
7407.10770 1.01261e-17
7410.15790 9.91242e-18
7413.19800 1.01834e-17
7416.23810 1.00190e-17
7419.27820 9.85445e-18
7422.31830 1.00465e-17
7425.35840 1.00546e-17
7428.39850 9.91638e-18
7431.44870 1.00688e-17
7434.48880 1.00955e-17
7437.52890 1.02117e-17
7440.56900 9.91248e-18
7443.60910 1.02567e-17
7446.64920 1.00070e-17
7449.68930 1.01225e-17
7452.72940 1.00226e-17
7455.77960 1.00763e-17
7458.81970 1.01764e-17
7461.85980 1.00854e-17
7464.89990 1.01182e-17
7467.94000 9.93315e-18
7470.98010 9.91497e-18
7474.02020 9.96365e-18
7477.06030 9.79921e-18
7480.11050 9.93755e-18
7483.15060 1.00414e-17
7486.19070 1.02137e-17
7489.23080 1.02185e-17
7492.27090 1.03963e-17
7495.31100 1.03226e-17
7498.35110 1.01993e-17
7501.39120 1.04064e-17
7504.44140 1.02725e-17
7507.48150 1.02266e-17
7510.52160 1.04380e-17
7513.56170 1.02250e-17
7516.60180 1.01718e-17
7519.64190 1.04907e-17
7522.68200 1.03490e-17
7525.73220 1.03799e-17
7528.77230 1.03518e-17
7531.81240 1.05752e-17
7534.85250 1.07152e-17
7537.89260 1.07152e-17
7540.93270 1.03569e-17
7543.97280 1.07545e-17
7547.01290 1.08006e-17
7550.06310 1.07918e-17
7553.10320 1.07831e-17
7556.14330 1.07743e-17
7559.18340 1.07656e-17
7562.22350 1.07569e-17
7565.26360 1.07481e-17
7568.30370 1.07394e-17
7571.34380 1.07307e-17
7574.39400 1.07220e-17
7577.43410 1.07132e-17
7580.47420 1.07045e-17
7583.51430 1.06958e-17
7586.55440 1.06871e-17
7589.59450 1.06783e-17
7592.63460 1.06696e-17
7595.68480 1.06609e-17
7598.72490 1.06522e-17
7601.76500 1.06435e-17
7604.80510 1.06348e-17
7607.84520 1.06261e-17
7610.88530 1.06174e-17
7613.92540 1.06087e-17
7616.96550 1.05999e-17
7620.01570 1.05912e-17
7623.05580 1.05825e-17
7626.09590 1.05738e-17
7629.13600 1.05651e-17
7632.17610 1.05564e-17
7635.21620 1.05477e-17
7638.25630 1.05391e-17
7641.30650 1.05304e-17
7644.34660 1.05217e-17
7647.38670 1.05130e-17
7650.42680 1.05043e-17
7653.46690 1.04956e-17
7656.50700 1.04869e-17
7659.54710 1.04783e-17
7662.58720 1.04696e-17
7665.62730 1.04609e-17
7668.67750 1.04522e-17
7671.71760 1.04435e-17
7674.75770 1.04349e-17
7677.79780 1.04262e-17
7680.83790 1.04175e-17
7683.87800 1.04611e-17
7686.91810 1.06651e-17
7689.96830 1.07304e-17
7693.00840 1.04649e-17
7696.04850 1.04920e-17
7699.08860 1.04948e-17
7702.12870 1.01898e-17
7705.16880 9.97149e-18
7708.20890 9.88819e-18
7711.24900 1.03004e-17
7714.29920 1.01985e-17
7717.33930 1.00445e-17
7720.37940 9.86809e-18
7723.41950 9.55093e-18
7726.45960 9.65884e-18
7729.49970 9.84873e-18
7732.53980 9.97450e-18
7735.59000 9.99436e-18
7738.63010 9.82081e-18
7741.67020 9.67249e-18
7744.71030 9.85475e-18
7747.75040 9.80090e-18
7750.79050 9.36664e-18
7753.83060 9.34359e-18
7756.87070 9.49617e-18
7759.92090 9.84178e-18
7762.96100 9.46862e-18
7766.00110 9.47920e-18
7769.04120 9.52952e-18
7772.08130 9.29812e-18
7775.12140 9.39927e-18
7778.16150 9.50341e-18
7781.20160 9.27715e-18
7784.25180 9.11730e-18
7787.29190 9.56354e-18
7790.33200 9.36228e-18
7793.37210 9.35294e-18
7796.41220 9.23657e-18
7799.45230 9.45685e-18
7802.49240 9.67319e-18
7805.53250 9.63884e-18
7808.58270 9.39601e-18
7811.62280 9.49504e-18
7814.66290 9.50098e-18
7817.70300 9.25957e-18
7820.74310 8.97148e-18
7823.78320 9.01472e-18
7826.82330 9.06009e-18
7829.87350 9.07175e-18
7832.91360 9.25076e-18
7835.95370 9.25256e-18
7838.99380 8.90998e-18
7842.03390 8.87198e-18
7845.07400 8.70276e-18
7848.11410 8.86653e-18
7851.15420 8.90590e-18
7854.20440 8.49967e-18
7857.24450 8.52236e-18
7860.28460 8.79631e-18
7863.32470 8.84115e-18
7866.36480 8.98117e-18
7869.40490 8.71991e-18
7872.44500 8.75342e-18
7875.48510 8.85529e-18
7878.53530 8.73535e-18
7881.57540 8.61234e-18
7884.61550 8.62985e-18
7887.65560 8.72785e-18
7890.69570 8.85160e-18
7893.73580 8.71283e-18
7896.77590 8.65404e-18
7899.81600 8.59163e-18
7902.86620 8.58502e-18
7905.90630 8.59231e-18
7908.94640 8.56974e-18
7911.98650 8.61950e-18
7915.02660 8.45733e-18
7918.06670 8.69548e-18
7921.10680 8.55100e-18
7924.15700 8.58816e-18
7927.19710 8.59305e-18
7930.23720 8.70773e-18
7933.27730 8.93168e-18
7936.31740 8.71349e-18
7939.35750 8.58250e-18
7942.39760 8.63426e-18
7945.43770 8.70587e-18
7948.48790 8.68804e-18
7951.52800 8.58843e-18
7954.56810 8.60230e-18
7957.60820 8.47123e-18
7960.64830 8.44977e-18
7963.68840 8.61943e-18
7966.72850 8.78299e-18
7969.76860 9.08181e-18
7972.81880 8.84481e-18
7975.85890 8.82851e-18
7978.89900 8.99841e-18
7981.93910 9.11294e-18
7984.97920 8.74058e-18
7988.01930 8.75044e-18
7991.05940 8.90402e-18
7994.10960 8.77736e-18
7997.14970 8.81723e-18
8000.18980 8.89484e-18
8003.22990 8.96605e-18
8006.27000 8.90590e-18
8009.31010 8.84589e-18
8012.35020 8.84491e-18
8015.39030 8.94016e-18
8018.44050 8.81921e-18
8021.48060 8.79385e-18
8024.52070 9.02354e-18
8027.56080 9.06944e-18
8030.60090 9.33034e-18
8033.64100 9.23297e-18
8036.68110 9.17899e-18
8039.72120 9.20472e-18
8042.77140 8.93111e-18
8045.81150 9.20194e-18
8048.85160 9.16625e-18
8051.89170 9.23747e-18
8054.93180 9.32416e-18
8057.97190 9.36771e-18
8061.01200 9.66994e-18
8064.05210 9.23150e-18
8067.10230 9.18060e-18
8070.14240 9.16475e-18
8073.18250 9.21804e-18
8076.22260 9.27418e-18
8079.26270 9.35448e-18
8082.30280 9.25916e-18
8085.34290 9.53485e-18
8088.39310 9.62221e-18
8091.43320 9.75923e-18
8094.47330 9.85757e-18
8097.51340 9.48584e-18
8100.55350 9.59549e-18
8103.59360 9.59837e-18
8106.63370 9.72238e-18
8109.67380 1.00632e-17
8112.72400 1.00079e-17
8115.76410 9.27579e-18
8118.80420 9.39402e-18
8121.84430 9.40492e-18
8124.88440 9.62774e-18
8127.92450 9.57724e-18
8130.96460 9.39397e-18
8134.00470 9.78299e-18
8137.05490 9.86628e-18
8140.09500 9.76658e-18
8143.13510 9.71300e-18
8146.17520 9.52138e-18
8149.21530 9.68946e-18
8152.25540 9.98023e-18
8155.29550 1.01902e-17
8158.34570 9.62388e-18
8161.38580 9.60242e-18
8164.42590 9.74826e-18
8167.46600 9.78115e-18
8170.50610 1.00292e-17
8173.54620 9.98765e-18
8176.58630 9.92440e-18
8179.62640 1.04096e-17
8182.67660 1.05578e-17
8185.71670 1.04870e-17
8188.75680 1.04225e-17
8191.79690 1.05987e-17
8194.83700 1.04739e-17
8197.87710 1.03749e-17
8200.91720 1.07173e-17
8203.95730 1.12577e-17
8207.00750 1.11800e-17
8210.04760 1.11432e-17
8213.08770 1.11507e-17
8216.12780 1.07489e-17
8219.16790 1.08941e-17
8222.20800 1.09389e-17
8225.24810 9.92583e-18
8228.28820 9.32160e-18
8231.33840 9.49723e-18
8234.37850 1.03283e-17
8237.41860 1.11145e-17
8240.45870 1.08708e-17
8243.49880 1.09284e-17
8246.53890 1.09018e-17
8249.57900 1.08499e-17
8252.62920 1.14328e-17
8255.66930 1.12922e-17
8258.70940 1.10644e-17
8261.74950 1.09498e-17
8264.78960 1.08239e-17
8267.82970 1.12366e-17
8270.86980 1.12519e-17
8273.90990 1.10342e-17
8276.96010 1.14558e-17
8280.00020 1.09712e-17
8283.04030 1.13439e-17
8286.08040 1.11508e-17
8289.12050 1.14747e-17
8292.16060 1.14734e-17
8295.20070 1.12297e-17
8298.24080 1.14628e-17
8301.29100 1.13542e-17
8304.33110 1.15743e-17
8307.37120 1.19378e-17
8310.41130 1.13256e-17
8313.45140 1.14541e-17
8316.49150 1.18220e-17
8319.53160 1.16154e-17
8322.58180 1.13355e-17
8325.62190 1.15992e-17
8328.66200 1.15017e-17
8331.70210 1.20045e-17
8334.74220 1.20423e-17
8337.78230 1.16162e-17
8340.82240 1.18577e-17
8343.86250 1.20340e-17
8346.91270 1.16300e-17
8349.95280 1.17456e-17
8352.99290 1.18260e-17
8356.03300 1.20122e-17
8359.07310 1.19925e-17
8362.11320 1.20971e-17
8365.15330 1.19927e-17
8368.19340 1.17458e-17
8371.24360 1.19699e-17
8374.28370 1.21536e-17
8377.32380 1.19627e-17
8380.36390 1.19404e-17
8383.40400 1.21755e-17
8386.44410 1.22227e-17
8389.48420 1.20313e-17
8392.52430 1.24615e-17
8395.57450 1.25124e-17
8398.61460 1.23734e-17
8401.65470 1.26733e-17
8404.69480 1.22772e-17
8407.73490 1.23924e-17
8410.77500 1.25489e-17
8413.81510 1.23790e-17
8416.86530 1.26039e-17
8419.90540 1.24160e-17
8422.94550 1.22784e-17
8425.98560 1.23177e-17
8429.02570 1.26837e-17
8432.06580 1.25937e-17
8435.10590 1.22155e-17
8438.14600 1.19905e-17
8441.19620 1.23919e-17
8444.23630 1.27731e-17
8447.27640 1.23692e-17
8450.31650 1.21340e-17
8453.35660 1.24304e-17
8456.39670 1.22166e-17
8459.43680 1.22331e-17
8462.47690 1.25294e-17
8465.52710 1.22494e-17
8468.56720 1.23534e-17
8471.60730 1.24216e-17
8474.64740 1.18504e-17
8477.68750 1.23188e-17
8480.72760 1.24280e-17
8483.76770 1.23622e-17
8486.81790 1.25343e-17
8489.85800 1.21104e-17
8492.89810 1.18433e-17
8495.93820 1.22044e-17
8498.97830 1.23908e-17
8502.01840 1.20185e-17
8505.05850 1.17958e-17
8508.09860 1.21701e-17
8511.14880 1.23029e-17
8514.18890 1.22573e-17
8517.22900 1.22972e-17
8520.26910 1.19014e-17
8523.30920 1.20083e-17
8526.34930 1.23286e-17
8529.38940 1.20675e-17
8532.43960 1.22393e-17
8535.47970 1.26122e-17
8538.51980 1.23069e-17
8541.55990 1.20261e-17
8544.60000 1.19265e-17
8547.64010 1.25780e-17
8550.68020 1.23986e-17
8553.72030 1.19551e-17
8556.76040 1.18853e-17
8559.81060 1.18435e-17
8562.85070 1.17876e-17
8565.89080 1.18789e-17
8568.93090 1.18855e-17
8571.97100 1.14986e-17
8575.01110 1.16863e-17
8578.05120 1.16486e-17
8581.10140 1.17234e-17
8584.14150 1.17576e-17
8587.18160 1.17770e-17
8590.22170 1.16555e-17
8593.26180 1.18753e-17
8596.30190 1.17392e-17
8599.34200 1.14736e-17
8602.38210 1.16364e-17
8605.43230 1.17831e-17
8608.47240 1.18316e-17
8611.51250 1.19082e-17
8614.55260 1.20205e-17
8617.59270 1.18354e-17
8620.63280 1.15447e-17
8623.67290 1.13129e-17
8626.71300 1.14173e-17
8629.76320 1.09962e-17
8632.80330 1.13336e-17
8635.84340 1.18234e-17
8638.88350 1.11241e-17
8641.92360 1.09050e-17
8644.96370 1.11756e-17
8648.00380 1.16143e-17
8651.04390 1.14134e-17
8654.09410 1.12862e-17
8657.13420 1.14688e-17
8660.17430 1.13720e-17
8663.21440 1.16754e-17
8666.25450 1.14467e-17
8669.29460 1.12511e-17
8672.33470 1.16417e-17
8675.38490 1.15301e-17
8678.42500 1.10760e-17
8681.46510 1.07249e-17
8684.50520 1.13121e-17
8687.54530 1.16533e-17
8690.58540 1.16565e-17
8693.62550 1.15568e-17
8696.66560 1.15446e-17
8699.71580 1.13594e-17
8702.75590 1.16669e-17
8705.79600 1.12669e-17
8708.83610 1.10481e-17
8711.87620 1.11846e-17
8714.91630 1.12161e-17
8717.95640 1.11613e-17
8721.00660 1.15183e-17
8724.04670 1.19910e-17
8727.08680 1.11704e-17
8730.12690 1.08900e-17
8733.16700 1.12128e-17
8736.20710 1.11605e-17
8739.24720 1.08747e-17
8742.28730 1.13679e-17
8745.33750 1.13768e-17
8748.37760 1.09972e-17
8751.41770 1.15346e-17
8754.45780 1.11413e-17
8757.49790 1.13902e-17
8760.53800 1.13905e-17
8763.57810 1.13647e-17
8766.62830 1.16938e-17
8769.66840 1.13408e-17
8772.70850 1.15821e-17
8775.74860 1.17619e-17
8778.78870 1.13518e-17
8781.82880 1.12214e-17
8784.86890 1.14411e-17
8787.90900 1.18974e-17
8790.95920 1.05397e-17
8793.99930 1.04958e-17
8797.03940 1.09928e-17
8800.07950 1.08891e-17
8803.11960 1.11723e-17
8806.15970 1.13170e-17
8809.19980 1.06190e-17
8812.23990 1.07247e-17
8815.28000 1.07737e-17
8818.33020 1.11618e-17
8821.37030 1.13413e-17
8824.41040 1.11932e-17
8827.45050 1.07817e-17
8830.49060 1.06655e-17
8833.53070 1.10388e-17
8836.57080 1.08368e-17
8839.62100 1.08612e-17
8842.66110 1.11013e-17
8845.70120 1.06468e-17
8848.74130 1.01759e-17
8851.78140 1.00772e-17
8854.82150 1.05226e-17
8857.86160 1.09664e-17
8860.90170 1.06561e-17
8863.95190 1.05444e-17
8866.99200 1.12155e-17
8870.03210 1.07318e-17
8873.07220 1.01248e-17
8876.11230 1.08289e-17
8879.15240 1.08944e-17
8882.19250 1.05851e-17
8885.24270 1.02074e-17
8888.28280 1.03251e-17
8891.32290 9.99318e-18
8894.36300 1.04545e-17
8897.40310 1.03757e-17
8900.44320 9.91103e-18
8903.48330 1.02368e-17
8906.52340 1.00916e-17
8909.57360 1.08712e-17
8912.61370 1.02843e-17
8915.65380 1.00278e-17
8918.69390 1.01117e-17
8921.73400 9.95949e-18
8924.77410 1.07138e-17
8927.81420 1.03451e-17
8930.86440 9.93295e-18
8933.90450 1.01708e-17
8936.94460 1.02782e-17
8939.98470 9.93704e-18
8943.02480 9.98811e-18
8946.06490 1.00209e-17
8949.10500 9.79459e-18
8952.14510 1.00148e-17
8955.19530 1.00900e-17
8958.23540 1.00426e-17
8961.27550 1.01674e-17
8964.31560 1.03591e-17
8967.35570 1.02127e-17
8970.39580 9.54755e-18
8973.43590 1.00260e-17
8976.47600 1.03421e-17
8979.52620 9.81371e-18
8982.56630 1.01112e-17
8985.60640 1.00865e-17
8988.64650 9.58142e-18
8991.68660 1.03998e-17
8994.72670 1.02309e-17
8997.76680 9.74868e-18
9000.80690 1.00694e-17
9003.85710 1.10112e-17
9006.89720 9.79109e-18
9009.93730 9.65898e-18
9012.97740 9.95867e-18
9016.01750 1.00277e-17
9019.05760 1.00771e-17
9022.09770 9.47749e-18
9025.14790 9.83535e-18
9028.18800 9.30193e-18
9031.22810 9.70225e-18
9034.26820 1.01035e-17
9037.30830 9.98904e-18
9040.34840 9.56321e-18
9043.38850 9.96963e-18
9046.42860 9.82296e-18
9049.47880 9.54662e-18
9052.51890 9.46799e-18
9055.55900 9.56840e-18
9058.59910 9.21891e-18
9061.63920 9.31027e-18
9064.67930 9.37033e-18
9067.71940 9.11475e-18
9070.75950 9.49116e-18
9073.80970 9.69080e-18
9076.84980 9.56746e-18
9079.88990 9.45817e-18
9082.93000 9.46791e-18
9085.97010 8.87460e-18
9089.01020 9.19197e-18
9092.05030 9.22954e-18
9095.09040 8.98802e-18
9098.14060 9.61939e-18
9101.18070 9.73405e-18
9104.22080 9.48989e-18
9107.26090 1.03174e-17
9110.30100 9.60968e-18
9113.34110 8.46615e-18
9116.38120 8.51439e-18
9119.43140 9.00221e-18
9122.47150 9.15762e-18
9125.51160 9.09177e-18
9128.55170 8.60257e-18
9131.59180 9.39144e-18
9134.63190 8.97249e-18
9137.67200 9.49485e-18
9140.71210 9.30692e-18
9143.76230 8.92156e-18
9146.80240 8.65411e-18
9149.84250 8.49422e-18
9152.88260 8.37636e-18
9155.92270 1.03127e-17
9158.96280 1.27546e-17
9162.00290 1.34095e-17
9165.04300 1.21765e-17
9168.09320 9.87475e-18
9171.13330 8.76562e-18
9174.17340 8.74078e-18
9177.21350 8.77740e-18
9180.25360 8.12154e-18
9183.29370 8.34488e-18
9186.33380 8.73490e-18
9189.38400 9.07720e-18
9192.42410 8.58493e-18
9195.46420 8.41354e-18
9198.50430 8.02549e-18
9201.54440 8.51096e-18
9204.58450 9.00495e-18
9207.62460 8.86903e-18
9210.66470 8.20576e-18
9213.71490 8.63797e-18
9216.75500 8.86689e-18
9219.79510 8.46238e-18
9222.83520 8.54506e-18
9225.87530 8.67848e-18
9228.91540 8.74118e-18
9231.95550 8.66909e-18
9234.99560 9.32548e-18
