# wavelength flux
3702.19540 0.00000e+00
3704.20530 0.00000e+00
3706.20510 0.00000e+00
3708.21500 0.00000e+00
3710.21480 0.00000e+00
3712.22470 0.00000e+00
3714.22450 0.00000e+00
3716.23440 0.00000e+00
3718.23420 0.00000e+00
3720.24410 2.55849e-18
3722.24390 3.98329e-18
3724.25380 2.81959e-18
3726.25360 1.19920e-19
3728.26350 2.08335e-18
3730.26330 3.05117e-18
3732.26310 -3.18258e-19
3734.27300 6.76187e-18
3736.27280 4.74346e-18
3738.28270 6.20145e-18
3740.28250 5.78718e-18
3742.29240 2.43920e-18
3744.29220 4.19797e-18
3746.30210 4.23064e-18
3748.30190 4.21318e-18
3750.31180 4.19574e-18
3752.31160 4.17830e-18
3754.32150 4.16087e-18
3756.32130 4.14344e-18
3758.33120 4.12603e-18
3760.33100 4.10863e-18
3762.34090 4.09124e-18
3764.34070 4.07385e-18
3766.34050 4.05648e-18
3768.35040 4.03911e-18
3770.35020 4.02175e-18
3772.36010 4.00440e-18
3774.35990 3.98706e-18
3776.36980 3.96973e-18
3778.36960 3.95240e-18
3780.37950 3.93509e-18
3782.37930 3.91778e-18
3784.38920 3.90048e-18
3786.38900 4.89652e-18
3788.39890 3.86870e-18
3790.39870 3.16492e-18
3792.40860 4.91171e-18
3794.40840 4.58109e-18
3796.41830 1.93947e-18
3798.41810 4.67237e-18
3800.41790 6.95255e-18
3802.42780 2.82261e-18
3804.42760 3.78973e-18
3806.43750 3.88784e-18
3808.43730 6.13352e-18
3810.44720 5.45604e-18
3812.44700 4.95194e-18
3814.45690 3.18329e-18
3816.45670 2.91403e-18
3818.46660 3.74990e-18
3820.46640 4.17121e-18
3822.47630 2.51716e-18
3824.47610 4.64765e-18
3826.48600 4.37349e-18
3828.48580 4.12155e-18
3830.48560 5.34709e-18
3832.49550 2.55675e-18
3834.49530 4.43438e-18
3836.50520 6.33866e-18
3838.50500 6.06469e-18
3840.51490 5.09312e-18
3842.51470 4.07063e-18
3844.52460 5.11103e-18
3846.52440 5.66892e-18
3848.53430 4.31321e-18
3850.53410 4.98338e-18
3852.54400 5.44791e-18
3854.54380 4.68601e-18
3856.55370 4.48389e-18
3858.55350 4.95023e-18
3860.56340 4.37622e-18
3862.56320 5.39960e-18
3864.56300 5.80096e-18
3866.57290 4.63249e-18
3868.57270 5.25903e-18
3870.58260 4.43886e-18
3872.58240 5.31112e-18
3874.59230 6.96707e-18
3876.59210 6.50141e-18
3878.60200 5.74481e-18
3880.60180 5.23642e-18
3882.61170 4.53915e-18
3884.61150 4.48015e-18
3886.62140 5.07463e-18
3888.62120 4.65467e-18
3890.63110 3.78580e-18
3892.63090 4.53618e-18
3894.63070 5.44536e-18
3896.64060 5.37996e-18
3898.64040 4.68115e-18
3900.65030 4.51305e-18
3902.65010 4.61944e-18
3904.66000 4.31327e-18
3906.65980 4.51748e-18
3908.66970 5.21596e-18
3910.66950 4.87443e-18
3912.67940 5.13987e-18
3914.67920 4.96907e-18
3916.68910 4.50196e-18
3918.68890 5.45852e-18
3920.69880 5.00031e-18
3922.69860 4.04886e-18
3924.70850 5.13312e-18
3926.70830 6.27529e-18
3928.70810 8.16626e-18
3930.71800 9.04746e-18
3932.71780 6.91702e-18
3934.72770 4.54539e-18
3936.72750 5.32653e-18
3938.73740 4.94030e-18
3940.73720 4.18283e-18
3942.74710 4.67342e-18
3944.74690 4.07275e-18
3946.75680 4.50864e-18
3948.75660 4.46434e-18
3950.76650 5.26593e-18
3952.76630 4.62388e-18
3954.77620 5.42833e-18
3956.77600 4.61805e-18
3958.78590 4.43821e-18
3960.78570 5.25371e-18
3962.78550 5.27703e-18
3964.79540 4.88810e-18
3966.79520 5.33562e-18
3968.80510 3.84373e-18
3970.80490 3.53020e-18
3972.81480 3.58953e-18
3974.81460 5.18176e-18
3976.82450 4.26655e-18
3978.82430 5.26701e-18
3980.83420 5.24029e-18
3982.83400 3.89383e-18
3984.84390 3.90821e-18
3986.84370 4.96904e-18
3988.85360 5.12110e-18
3990.85340 4.99295e-18
3992.86330 3.65698e-18
3994.86310 4.90691e-18
3996.86290 5.32595e-18
3998.87280 4.91245e-18
4000.87260 6.07047e-18
4002.88250 4.60359e-18
4004.88230 4.39852e-18
4006.89220 5.47984e-18
4008.89200 6.61615e-18
4010.90190 7.01802e-18
4012.90170 7.47174e-18
4014.91160 6.83726e-18
4016.91140 6.02588e-18
4018.92130 5.34179e-18
4020.92110 4.89524e-18
4022.93100 4.49653e-18
4024.93080 4.74417e-18
4026.93060 5.10840e-18
4028.94050 4.64118e-18
4030.94030 4.50155e-18
4032.95020 5.03165e-18
4034.95000 3.76425e-18
4036.95990 4.79247e-18
4038.95970 4.21745e-18
4040.96960 2.72502e-18
4042.96940 3.54805e-18
4044.97930 4.14038e-18
4046.97910 4.23454e-18
4048.98900 5.37374e-18
4050.98880 4.72430e-18
4052.99870 3.89494e-18
4054.99850 4.88464e-18
4057.00840 4.13034e-18
4059.00820 4.33823e-18
4061.00800 5.23313e-18
4063.01790 4.57104e-18
4065.01770 4.45754e-18
4067.02760 4.02744e-18
4069.02740 4.35389e-18
4071.03730 4.47964e-18
4073.03710 4.06858e-18
4075.04700 4.05562e-18
4077.04680 4.66502e-18
4079.05670 4.38536e-18
4081.05650 4.35698e-18
4083.06640 4.49881e-18
4085.06620 4.57874e-18
4087.07610 4.55185e-18
4089.07590 4.36138e-18
4091.08580 4.59228e-18
4093.08560 4.58534e-18
4095.08540 4.24771e-18
4097.09530 4.67435e-18
4099.09510 5.10196e-18
4101.10500 4.80112e-18
4103.10480 4.61571e-18
4105.11470 4.85277e-18
4107.11450 4.87989e-18
4109.12440 4.34547e-18
4111.12420 5.57148e-18
4113.13410 5.59908e-18
4115.13390 5.14343e-18
4117.14380 3.96102e-18
4119.14360 5.22270e-18
4121.15350 4.86871e-18
4123.15330 4.44235e-18
4125.15310 4.89424e-18
4127.16300 4.97311e-18
4129.16280 4.85268e-18
4131.17270 4.20697e-18
4133.17250 4.18114e-18
4135.18240 3.80845e-18
4137.18220 3.10947e-18
4139.19210 4.25425e-18
4141.19190 5.17898e-18
4143.20180 8.00660e-18
4145.20160 8.25884e-18
4147.21150 6.85142e-18
4149.21130 5.02231e-18
4151.22120 3.87978e-18
4153.22100 3.68490e-18
4155.23090 4.81762e-18
4157.23070 4.67133e-18
4159.23050 4.16336e-18
4161.24040 4.80218e-18
4163.24020 4.88091e-18
4165.25010 5.42078e-18
4167.24990 4.27725e-18
4169.25980 4.76724e-18
4171.25960 4.83345e-18
4173.26950 4.50144e-18
4175.26930 3.92139e-18
4177.27920 4.94376e-18
4179.27900 4.85844e-18
4181.28890 4.85167e-18
4183.28870 4.88460e-18
4185.29860 4.80269e-18
4187.29840 5.03928e-18
4189.30830 4.78616e-18
4191.30810 4.64281e-18
4193.30790 4.13525e-18
4195.31780 4.45837e-18
4197.31760 4.49073e-18
4199.32750 4.37581e-18
4201.32730 4.78706e-18
4203.33720 5.18611e-18
4205.33700 5.26119e-18
4207.34690 4.68735e-18
4209.34670 4.76985e-18
4211.35660 3.62929e-18
4213.35640 4.71812e-18
4215.36630 4.85242e-18
4217.36610 5.26256e-18
4219.37600 4.99327e-18
4221.37580 4.50223e-18
4223.37560 4.02455e-18
4225.38550 4.60023e-18
4227.38530 3.59440e-18
4229.39520 4.65692e-18
4231.39500 5.23521e-18
4233.40490 4.43084e-18
4235.40470 4.51575e-18
4237.41460 4.98939e-18
4239.41440 4.55026e-18
4241.42430 4.45592e-18
4243.42410 4.55591e-18
4245.43400 5.11955e-18
4247.43380 5.08120e-18
4249.44370 4.53481e-18
4251.44350 4.46961e-18
4253.44330 4.40669e-18
4255.45320 4.83967e-18
4257.45300 4.46182e-18
4259.46290 4.64327e-18
4261.46270 4.85376e-18
4263.47260 4.03283e-18
4265.47240 4.10939e-18
4267.48230 4.05088e-18
4269.48210 4.47956e-18
4271.49200 4.76152e-18
4273.49180 4.69190e-18
4275.50170 4.24002e-18
4277.50150 5.02346e-18
4279.51140 4.77738e-18
4281.51120 4.48019e-18
4283.52110 5.22328e-18
4285.52090 4.98293e-18
4287.53080 4.79717e-18
4289.53060 4.74280e-18
4291.53040 4.59494e-18
4293.54030 4.43779e-18
4295.54010 5.02286e-18
4297.55000 5.56928e-18
4299.54980 5.14716e-18
4301.55970 4.47125e-18
4303.55950 4.66815e-18
4305.56940 4.70418e-18
4307.56920 5.19573e-18
4309.57910 5.28448e-18
4311.57890 4.85582e-18
4313.58880 5.13989e-18
4315.58860 5.17941e-18
4317.59850 5.18731e-18
4319.59830 5.27817e-18
4321.59810 4.83077e-18
4323.60800 5.46808e-18
4325.60780 5.36732e-18
4327.61770 5.03271e-18
4329.61750 4.92320e-18
4331.62740 4.73917e-18
4333.62720 4.95097e-18
4335.63710 5.57360e-18
4337.63690 5.55080e-18
4339.64680 5.00904e-18
4341.64660 4.80866e-18
4343.65650 5.18660e-18
4345.65630 5.42801e-18
4347.66620 5.15571e-18
4349.66600 5.21466e-18
4351.66580 5.62336e-18
4353.67570 5.49025e-18
4355.67550 5.12650e-18
4357.68540 5.80757e-18
4359.68520 5.78376e-18
4361.69510 5.66692e-18
4363.69490 5.42908e-18
4365.70480 4.94542e-18
4367.70460 5.22425e-18
4369.71450 5.26369e-18
4371.71430 6.03969e-18
4373.72420 5.90125e-18
4375.72400 6.04550e-18
4377.73390 6.04646e-18
4379.73370 6.04742e-18
4381.74360 6.04838e-18
4383.74340 6.04933e-18
4385.74320 6.05028e-18
4387.75310 6.05124e-18
4389.75290 6.05219e-18
4391.76280 6.05314e-18
4393.76260 6.05408e-18
4395.77250 6.05503e-18
4397.77230 6.05598e-18
4399.78220 6.05692e-18
4401.78200 6.05786e-18
4403.79190 6.05880e-18
4405.79170 6.05974e-18
4407.80160 6.06068e-18
4409.80140 6.06162e-18
4411.81130 6.06255e-18
4413.81110 6.06348e-18
4415.82100 6.06442e-18
4417.82080 6.06535e-18
4419.82060 6.06628e-18
4421.83050 6.06720e-18
4423.83030 6.06813e-18
4425.84020 6.06905e-18
4427.84000 6.06998e-18
4429.84990 6.07090e-18
4431.84970 6.07182e-18
4433.85960 6.07274e-18
4435.85940 6.07366e-18
4437.86930 6.07457e-18
4439.86910 5.79685e-18
4441.87900 6.65475e-18
4443.87880 6.35740e-18
4445.88870 6.59254e-18
4447.88850 6.58590e-18
4449.89840 6.61009e-18
4451.89820 6.43441e-18
4453.89800 6.44286e-18
4455.90790 6.64197e-18
4457.90770 6.80536e-18
4459.91760 7.01852e-18
4461.91740 6.87817e-18
4463.92730 6.46852e-18
4465.92710 6.11616e-18
4467.93700 6.62615e-18
4469.93680 6.57833e-18
4471.94670 6.22936e-18
4473.94650 6.49162e-18
4475.95640 6.31398e-18
4477.95620 6.65534e-18
4479.96610 6.49671e-18
4481.96590 6.58559e-18
4483.97580 6.70202e-18
4485.97560 7.12959e-18
4487.97540 6.21857e-18
4489.98530 6.65278e-18
4491.98510 6.88391e-18
4493.99500 6.92660e-18
4495.99480 6.69542e-18
4498.00470 6.70782e-18
4500.00450 6.90177e-18
4502.01440 7.33485e-18
4504.01420 6.65501e-18
4506.02410 7.18591e-18
4508.02390 7.19313e-18
4510.03380 6.98129e-18
4512.03360 7.39980e-18
4514.04350 7.04447e-18
4516.04330 7.83495e-18
4518.04310 8.03512e-18
4520.05300 7.88795e-18
4522.05280 8.06972e-18
4524.06270 7.40634e-18
4526.06250 7.43191e-18
4528.07240 7.14479e-18
4530.07220 7.41411e-18
4532.08210 7.11039e-18
4534.08190 7.25254e-18
4536.09180 7.20881e-18
4538.09160 7.85694e-18
4540.10150 7.81682e-18
4542.10130 6.94226e-18
4544.11120 7.28727e-18
4546.11100 7.52349e-18
4548.11080 7.31283e-18
4550.12070 7.47503e-18
4552.12050 7.23088e-18
4554.13040 7.46577e-18
4556.13020 7.61149e-18
4558.14010 7.52471e-18
4560.13990 7.66209e-18
4562.14980 7.94311e-18
4564.14960 7.61778e-18
4566.15950 7.58471e-18
4568.15930 7.32330e-18
4570.16920 6.79584e-18
4572.16900 7.65694e-18
4574.17890 7.39478e-18
4576.17870 7.35448e-18
4578.18860 7.07999e-18
4580.18840 7.69483e-18
4582.18820 7.17508e-18
4584.19810 7.41569e-18
4586.19790 7.50572e-18
4588.20780 7.57606e-18
4590.20760 7.68058e-18
4592.21750 7.50016e-18
4594.21730 7.56109e-18
4596.22720 7.40619e-18
4598.22700 7.03699e-18
4600.23690 7.30271e-18
4602.23670 7.39893e-18
4604.24660 7.48626e-18
4606.24640 7.29922e-18
4608.25630 7.87524e-18
4610.25610 7.33517e-18
4612.26600 6.74334e-18
4614.26580 6.65887e-18
4616.26560 7.15902e-18
4618.27550 7.06362e-18
4620.27530 6.95988e-18
4622.28520 6.73626e-18
4624.28500 6.75576e-18
4626.29490 6.51869e-18
4628.29470 6.80354e-18
4630.30460 6.78220e-18
4632.30440 6.65813e-18
4634.31430 6.90751e-18
4636.31410 6.80370e-18
4638.32400 6.94583e-18
4640.32380 6.66265e-18
4642.33370 6.87523e-18
4644.33350 6.68084e-18
4646.33330 6.48984e-18
4648.34320 6.58274e-18
4650.34300 6.73655e-18
4652.35290 6.48538e-18
4654.35270 6.82180e-18
4656.36260 6.46344e-18
4658.36240 6.55269e-18
4660.37230 6.44181e-18
4662.37210 6.15931e-18
4664.38200 6.45508e-18
4666.38180 6.24775e-18
4668.39170 6.32603e-18
4670.39150 6.77553e-18
4672.40140 6.65367e-18
4674.40120 6.98301e-18
4676.41110 6.43514e-18
4678.41090 6.31695e-18
4680.41070 6.73257e-18
4682.42060 6.28987e-18
4684.42040 6.30453e-18
4686.43030 6.31204e-18
4688.43010 6.81124e-18
4690.44000 5.98519e-18
4692.43980 6.71353e-18
4694.44970 6.30364e-18
4696.44950 6.16418e-18
4698.45940 5.97299e-18
4700.45920 6.09940e-18
4702.46910 6.50668e-18
4704.46890 6.20582e-18
4706.47880 6.05800e-18
4708.47860 6.12682e-18
4710.48850 6.27998e-18
4712.48830 5.92994e-18
4714.48810 5.98456e-18
4716.49800 5.85032e-18
4718.49780 5.53480e-18
4720.50770 5.69404e-18
4722.50750 5.81192e-18
4724.51740 5.88624e-18
4726.51720 6.03327e-18
4728.52710 6.25111e-18
4730.52690 6.87065e-18
4732.53680 6.24386e-18
4734.53660 6.13957e-18
4736.54650 6.28914e-18
4738.54630 6.35868e-18
4740.55620 6.22440e-18
4742.55600 6.32661e-18
4744.55580 5.60478e-18
4746.56570 6.18297e-18
4748.56550 6.03322e-18
4750.57540 6.22510e-18
4752.57520 6.12555e-18
4754.58510 5.90872e-18
4756.58490 6.37703e-18
4758.59480 6.30760e-18
4760.59460 6.21457e-18
4762.60450 6.08102e-18
4764.60430 5.79937e-18
4766.61420 5.73911e-18
4768.61400 6.05024e-18
4770.62390 6.21865e-18
4772.62370 6.01211e-18
4774.63360 5.97977e-18
4776.63340 6.08243e-18
4778.64330 5.95320e-18
4780.64310 6.09630e-18
4782.64290 6.09844e-18
4784.65280 6.10005e-18
4786.65260 6.26640e-18
4788.66250 5.88581e-18
4790.66230 5.98760e-18
4792.67220 6.07876e-18
4794.67200 5.74238e-18
4796.68190 6.05073e-18
4798.68170 5.80481e-18
4800.69160 6.14794e-18
4802.69140 6.28803e-18
4804.70130 6.09990e-18
4806.70110 6.34080e-18
4808.71100 6.00956e-18
4810.71080 5.79443e-18
4812.71060 5.93822e-18
4814.72050 6.24621e-18
4816.72030 5.81341e-18
4818.73020 5.81617e-18
4820.73000 5.77031e-18
4822.73990 5.94522e-18
4824.73970 6.16865e-18
4826.74960 5.97997e-18
4828.74940 5.60960e-18
4830.75930 5.34561e-18
4832.75910 5.58074e-18
4834.76900 5.78915e-18
4836.76880 6.22518e-18
4838.77870 5.91747e-18
4840.77850 5.94632e-18
4842.77830 5.63755e-18
4844.78820 5.57520e-18
4846.78800 6.10449e-18
4848.79790 5.71175e-18
4850.79770 5.57250e-18
4852.80760 5.74928e-18
4854.80740 5.84083e-18
4856.81730 5.79055e-18
4858.81710 6.19665e-18
4860.82700 6.10222e-18
4862.82680 6.21186e-18
4864.83670 5.81985e-18
4866.83650 5.85305e-18
4868.84640 6.01914e-18
4870.84620 6.11786e-18
4872.85610 5.83397e-18
4874.85590 5.83598e-18
4876.85570 6.04124e-18
4878.86560 6.27886e-18
4880.86540 6.20999e-18
4882.87530 6.07451e-18
4884.87510 6.02812e-18
4886.88500 6.28438e-18
4888.88480 6.20396e-18
4890.89470 5.73930e-18
4892.89450 5.78952e-18
4894.90440 5.83970e-18
4896.90420 5.88987e-18
4898.91410 5.94002e-18
4900.91390 5.99016e-18
4902.92380 6.04027e-18
4904.92360 6.09037e-18
4906.93350 6.14046e-18
4908.93330 6.19052e-18
4910.93310 6.24056e-18
4912.94300 6.29058e-18
4914.94280 6.34061e-18
4916.95270 6.39059e-18
4918.95250 6.44056e-18
4920.96240 6.49054e-18
4922.96220 6.54047e-18
4924.97210 6.59038e-18
4926.97190 6.64030e-18
4928.98180 6.69018e-18
4930.98160 7.05814e-18
4932.99150 7.21257e-18
4934.99130 6.42784e-18
4937.00120 6.99645e-18
4939.00100 7.06250e-18
4941.00080 7.10323e-18
4943.01070 6.91342e-18
4945.01050 6.62204e-18
4947.02040 6.90607e-18
4949.02020 7.15141e-18
4951.03010 7.15530e-18
4953.02990 6.95067e-18
4955.03980 6.85981e-18
4957.03960 6.92786e-18
4959.04950 7.30367e-18
4961.04930 6.93490e-18
4963.05920 6.66987e-18
4965.05900 6.75619e-18
4967.06890 6.66033e-18
4969.06870 6.92153e-18
4971.07860 6.89799e-18
4973.07840 7.09493e-18
4975.07820 7.04503e-18
4977.08810 7.12476e-18
4979.08790 7.16268e-18
4981.09780 6.72257e-18
4983.09760 7.10592e-18
4985.10750 7.11847e-18
4987.10730 6.88769e-18
4989.11720 7.05819e-18
4991.11700 7.08207e-18
4993.12690 7.10594e-18
4995.12670 7.12981e-18
4997.13660 7.15367e-18
4999.13640 7.17751e-18
5001.14630 7.20136e-18
5003.14610 7.22519e-18
5005.15600 7.24902e-18
5007.15580 7.27284e-18
5009.15560 7.29665e-18
5011.16550 7.32046e-18
5013.16530 7.34425e-18
5015.17520 7.36804e-18
5017.17500 7.39182e-18
5019.18490 7.41559e-18
5021.18470 7.43935e-18
5023.19460 7.46311e-18
5025.19440 7.48686e-18
5027.20430 7.51059e-18
5029.20410 7.11585e-18
5031.21400 7.04088e-18
5033.21380 7.49616e-18
5035.22370 7.65819e-18
5037.22350 7.42160e-18
5039.22330 7.46254e-18
5041.23320 7.50348e-18
5043.23300 7.54439e-18
5045.24290 7.58530e-18
5047.24270 7.62618e-18
5049.25260 7.66706e-18
5051.25240 7.70793e-18
5053.26230 7.74877e-18
5055.26210 7.78961e-18
5057.27200 7.83044e-18
5059.27180 7.87124e-18
5061.28170 7.91205e-18
5063.28150 7.95283e-18
5065.29140 7.99359e-18
5067.29120 8.03435e-18
5069.30110 8.07510e-18
5071.30090 8.11583e-18
5073.30070 8.15655e-18
5075.31060 8.19725e-18
5077.31040 7.93288e-18
5079.32030 8.09812e-18
5081.32010 8.32651e-18
5083.33000 8.30551e-18
5085.32980 8.14912e-18
5087.33970 8.25170e-18
5089.33950 8.62318e-18
5091.34940 8.38193e-18
5093.34920 8.23409e-18
5095.35910 8.12798e-18
5097.35890 8.49504e-18
5099.36880 8.50808e-18
5101.36860 8.51581e-18
5103.37850 8.46917e-18
5105.37830 8.79774e-18
5107.37810 8.77074e-18
5109.38800 8.50969e-18
5111.38780 8.96739e-18
5113.39770 8.65775e-18
5115.39750 8.99458e-18
5117.40740 9.04135e-18
5119.40720 8.85522e-18
5121.41710 8.98809e-18
5123.41690 8.91567e-18
5125.42680 8.82852e-18
5127.42660 9.56999e-18
5129.43650 9.33672e-18
5131.43630 8.69735e-18
5133.44620 8.97375e-18
5135.44600 9.40413e-18
5137.44580 9.34594e-18
5139.45570 9.36305e-18
5141.45550 9.33248e-18
5143.46540 9.11083e-18
5145.46520 9.39294e-18
5147.47510 9.33584e-18
5149.47490 9.45509e-18
5151.48480 9.52290e-18
5153.48460 9.62942e-18
5155.49450 9.27107e-18
5157.49430 9.71848e-18
5159.50420 9.63452e-18
5161.50400 9.35388e-18
5163.51390 9.79133e-18
5165.51370 1.02080e-17
5167.51350 9.90462e-18
5169.52340 9.82478e-18
5171.52320 9.74319e-18
5173.53310 9.62757e-18
5175.53290 9.86397e-18
5177.54280 9.98729e-18
5179.54260 9.91967e-18
5181.55250 9.92037e-18
5183.55230 9.84042e-18
5185.56220 1.01613e-17
5187.56200 9.96927e-18
5189.57190 1.02799e-17
5191.57170 1.01104e-17
5193.58160 1.02085e-17
5195.58140 1.02611e-17
5197.59130 1.03131e-17
5199.59110 1.06451e-17
5201.59090 1.03658e-17
5203.60080 1.02881e-17
5205.60060 1.10076e-17
5207.61050 1.07676e-17
5209.61030 1.04692e-17
5211.62020 1.05248e-17
5213.62000 1.02334e-17
5215.62990 1.04879e-17
5217.62970 1.07604e-17
5219.63960 1.10288e-17
5221.63940 1.07835e-17
5223.64930 1.05196e-17
5225.64910 1.08441e-17
5227.65900 1.06588e-17
5229.65880 1.08143e-17
5231.66870 1.06349e-17
5233.66850 1.05454e-17
5235.66830 1.09341e-17
5237.67820 1.07693e-17
5239.67800 1.13478e-17
5241.68790 1.09926e-17
5243.68770 1.11892e-17
5245.69760 1.09904e-17
5247.69740 1.11687e-17
5249.70730 1.18760e-17
5251.70710 1.15331e-17
5253.71700 1.17708e-17
5255.71680 1.17080e-17
5257.72670 1.18302e-17
5259.72650 1.09151e-17
5261.73640 1.19614e-17
5263.73620 1.17167e-17
5265.73600 1.11774e-17
5267.74590 1.14973e-17
5269.74570 1.18385e-17
5271.75560 1.16287e-17
5273.75540 1.15246e-17
5275.76530 1.18343e-17
5277.76510 1.21255e-17
5279.77500 1.15613e-17
5281.77480 1.12174e-17
5283.78470 1.19623e-17
5285.78450 1.18807e-17
5287.79440 1.17323e-17
5289.79420 1.15790e-17
5291.80410 1.18350e-17
5293.80390 1.22969e-17
5295.81380 1.21821e-17
5297.81360 1.33855e-17
5299.81340 1.21450e-17
5301.82330 1.19056e-17
5303.82310 1.22697e-17
5305.83300 1.25659e-17
5307.83280 1.27473e-17
5309.84270 1.27100e-17
5311.84250 1.27514e-17
5313.85240 1.31163e-17
5315.85220 1.30728e-17
5317.86210 1.32631e-17
5319.86190 1.33167e-17
5321.87180 1.34826e-17
5323.87160 1.37176e-17
5325.88150 1.35158e-17
5327.88130 1.34524e-17
5329.89120 1.38317e-17
5331.89100 1.37995e-17
5333.89080 1.35485e-17
5335.90070 1.33314e-17
5337.90050 1.34498e-17
5339.91040 1.39519e-17
5341.91020 1.40638e-17
5343.92010 1.40671e-17
5345.91990 1.37684e-17
5347.92980 1.38323e-17
5349.92960 1.38710e-17
5351.93950 1.38635e-17
5353.93930 1.42095e-17
5355.94920 1.42255e-17
5357.94900 1.42810e-17
5359.95890 1.42520e-17
5361.95870 1.43687e-17
5363.95850 1.44695e-17
5365.96840 1.45984e-17
5367.96820 1.44348e-17
5369.97810 1.46011e-17
5371.97790 1.46469e-17
5373.98780 1.42249e-17
5375.98760 1.41634e-17
5377.99750 1.40702e-17
5379.99730 1.46429e-17
5382.00720 1.44578e-17
5384.00700 1.44873e-17
5386.01690 1.46174e-17
5388.01670 1.44636e-17
5390.02660 1.50289e-17
5392.02640 1.47174e-17
5394.03630 1.46058e-17
5396.03610 1.49968e-17
5398.04600 1.46107e-17
5400.04580 1.45857e-17
5402.04560 1.49377e-17
5404.05550 1.50077e-17
5406.05530 1.49347e-17
5408.06520 1.48180e-17
5410.06500 1.52409e-17
5412.07490 1.57373e-17
5414.07470 1.53076e-17
5416.08460 1.50860e-17
5418.08440 1.50366e-17
5420.09430 1.49693e-17
5422.09410 1.54338e-17
5424.10400 1.49185e-17
5426.10380 1.46103e-17
5428.11370 1.48422e-17
5430.11350 1.51981e-17
5432.11330 1.48250e-17
5434.12320 1.53559e-17
5436.12300 1.51842e-17
5438.13290 1.50016e-17
5440.13270 1.55719e-17
5442.14260 1.57264e-17
5444.14240 1.59869e-17
5446.15230 1.55561e-17
5448.15210 1.54390e-17
5450.16200 1.53873e-17
5452.16180 1.54606e-17
5454.17170 1.56637e-17
5456.17150 1.56451e-17
5458.18140 1.53402e-17
5460.18120 1.54449e-17
5462.18100 1.57657e-17
5464.19090 1.50854e-17
5466.19070 1.52888e-17
5468.20060 1.54807e-17
5470.20040 1.52500e-17
5472.21030 1.57706e-17
5474.21010 1.57701e-17
5476.22000 1.58619e-17
5478.21980 1.57566e-17
5480.22970 1.58248e-17
5482.22950 1.60182e-17
5484.23940 1.59405e-17
5486.23920 1.60300e-17
5488.24910 1.60059e-17
5490.24890 1.57517e-17
5492.25880 1.62728e-17
5494.25860 1.61979e-17
5496.25840 1.62685e-17
5498.26830 1.59761e-17
5500.26810 1.57470e-17
5502.27800 1.58331e-17
5504.27780 1.58912e-17
5506.28770 1.54563e-17
5508.28750 1.59588e-17
5510.29740 1.58889e-17
5512.29720 1.56406e-17
5514.30710 1.59350e-17
5516.30690 1.60203e-17
5518.31680 1.57736e-17
5520.31660 1.54710e-17
5522.32650 1.55984e-17
5524.32630 1.54407e-17
5526.33620 1.54256e-17
5528.33600 1.59082e-17
5530.33580 1.57661e-17
5532.34570 1.54650e-17
5534.34550 1.50710e-17
5536.35540 1.47867e-17
5538.35520 1.49670e-17
5540.36510 1.50925e-17
5542.36490 1.50679e-17
5544.37480 1.48215e-17
5546.37460 1.50116e-17
5548.38450 1.48612e-17
5550.38430 1.46756e-17
5552.39420 1.49464e-17
5554.39400 1.50948e-17
5556.40390 1.48306e-17
5558.40370 1.49169e-17
5560.40350 1.49038e-17
5562.41340 1.44867e-17
5564.41320 1.44390e-17
5566.42310 1.42648e-17
5568.42290 1.45184e-17
5570.43280 1.47218e-17
5572.43260 1.46759e-17
5574.44250 1.45242e-17
5576.44230 1.44443e-17
5578.45220 1.42445e-17
5580.45200 1.51021e-17
5582.46190 1.46996e-17
5584.46170 1.38724e-17
5586.47160 1.39975e-17
5588.47140 1.43626e-17
5590.48130 1.41384e-17
5592.48110 1.38229e-17
5594.48090 1.35877e-17
5596.49080 1.36385e-17
5598.49060 1.35964e-17
5600.50050 1.33213e-17
5602.50030 1.32739e-17
5604.51020 1.35362e-17
5606.51000 1.32594e-17
5608.51990 1.29930e-17
5610.51970 1.31475e-17
5612.52960 1.34251e-17
5614.52940 1.30658e-17
5616.53930 1.30408e-17
5618.53910 1.30725e-17
5620.54900 1.29345e-17
5622.54880 1.31563e-17
5624.55870 1.34581e-17
5626.55850 1.31425e-17
5628.55830 1.29296e-17
5630.56820 1.28415e-17
5632.56800 1.29616e-17
5634.57790 1.30392e-17
5636.57770 1.28736e-17
5638.58760 1.31255e-17
5640.58740 1.28465e-17
5642.59730 1.24838e-17
5644.59710 1.26684e-17
5646.60700 1.27547e-17
5648.60680 1.24352e-17
5650.61670 1.23077e-17
5652.61650 1.24744e-17
5654.62640 1.26075e-17
5656.62620 1.23975e-17
5658.62600 1.23791e-17
5660.63590 1.26654e-17
5662.63570 1.25871e-17
5664.64560 1.27444e-17
5666.64540 1.28077e-17
5668.65530 1.26164e-17
5670.65510 1.23955e-17
5672.66500 1.27843e-17
5674.66480 1.25101e-17
5676.67470 1.24339e-17
5678.67450 1.26471e-17
5680.68440 1.25178e-17
5682.68420 1.26110e-17
5684.69410 1.25686e-17
5686.69390 1.26497e-17
5688.70380 1.26477e-17
5690.70360 1.26497e-17
5692.70340 1.23538e-17
5694.71330 1.25786e-17
5696.71310 1.24739e-17
5698.72300 1.24994e-17
5700.72280 1.28986e-17
5702.73270 1.25532e-17
5704.73250 1.29501e-17
5706.74240 1.27749e-17
5708.74220 1.26907e-17
5710.75210 1.28640e-17
5712.75190 1.27977e-17
5714.76180 1.27267e-17
5716.76160 1.29131e-17
5718.77150 1.28971e-17
5720.77130 1.31258e-17
5722.78120 1.28620e-17
5724.78100 1.26592e-17
5726.78080 1.29572e-17
5728.79070 1.32182e-17
5730.79050 1.30487e-17
5732.80040 1.32181e-17
5734.80020 1.30420e-17
5736.81010 1.29402e-17
5738.80990 1.31496e-17
5740.81980 1.37591e-17
5742.81960 1.34234e-17
5744.82950 1.32826e-17
5746.82930 1.33490e-17
5748.83920 1.36389e-17
5750.83900 1.35860e-17
5752.84890 1.36037e-17
5754.84870 1.35987e-17
5756.84850 1.35849e-17
5758.85840 1.35047e-17
5760.85820 1.35639e-17
5762.86810 1.33425e-17
5764.86790 1.36068e-17
5766.87780 1.35001e-17
5768.87760 1.37541e-17
5770.88750 1.40048e-17
5772.88730 1.37915e-17
5774.89720 1.37292e-17
5776.89700 1.38649e-17
5778.90690 1.39945e-17
5780.90670 1.40352e-17
5782.91660 1.37953e-17
5784.91640 1.40026e-17
5786.91620 1.43917e-17
5788.92610 1.43293e-17
5790.92590 1.40877e-17
5792.93580 1.44053e-17
5794.93560 1.44044e-17
5796.94550 1.41526e-17
5798.94530 1.42040e-17
5800.95520 1.44875e-17
5802.95500 1.43185e-17
5804.96490 1.42587e-17
5806.96470 1.46792e-17
5808.97460 1.45426e-17
5810.97440 1.48370e-17
5812.98430 1.45817e-17
5814.98410 1.51286e-17
5816.99400 1.45589e-17
5818.99380 1.43418e-17
5820.99360 1.43382e-17
5823.00350 1.47948e-17
5825.00330 1.48958e-17
5827.01320 1.49329e-17
5829.01300 1.49514e-17
5831.02290 1.48319e-17
5833.02270 1.49932e-17
5835.03260 1.49465e-17
5837.03240 1.48197e-17
5839.04230 1.46248e-17
5841.04210 1.43941e-17
5843.05200 1.48443e-17
5845.05180 1.48074e-17
5847.06170 1.52665e-17
5849.06150 1.50115e-17
5851.07140 1.52320e-17
5853.07120 1.50564e-17
5855.07100 1.50300e-17
5857.08090 1.50429e-17
5859.08070 1.53722e-17
5861.09060 1.53760e-17
5863.09040 1.56079e-17
5865.10030 1.58646e-17
5867.10010 1.54630e-17
5869.11000 1.52606e-17
5871.10980 1.53190e-17
5873.11970 1.54307e-17
5875.11950 1.56536e-17
5877.12940 1.55486e-17
5879.12920 1.55304e-17
5881.13910 1.57139e-17
5883.13890 1.56487e-17
5885.14880 1.57602e-17
5887.14860 1.54921e-17
5889.14840 1.49701e-17
5891.15830 1.49555e-17
5893.15810 1.52524e-17
5895.16800 1.50494e-17
5897.16780 1.53324e-17
5899.17770 1.55826e-17
5901.17750 1.56142e-17
5903.18740 1.55882e-17
5905.18720 1.55909e-17
5907.19710 1.55935e-17
5909.19690 1.55962e-17
5911.20680 1.55989e-17
5913.20660 1.56015e-17
5915.21650 1.56042e-17
5917.21630 1.56069e-17
5919.22620 1.56095e-17
5921.22600 1.56122e-17
5923.22580 1.56149e-17
5925.23570 1.56176e-17
5927.23550 1.56202e-17
5929.24540 1.56229e-17
5931.24520 1.56256e-17
5933.25510 1.56283e-17
5935.25490 1.56310e-17
5937.26480 1.56337e-17
5939.26460 1.56363e-17
5941.27450 1.56390e-17
5943.27430 1.56417e-17
5945.28420 1.56444e-17
5947.28400 1.56471e-17
5949.29390 1.56498e-17
5951.29370 1.56525e-17
5953.29350 1.56552e-17
5955.30340 1.56579e-17
5957.30320 1.56606e-17
5959.31310 1.56633e-17
5961.31290 1.56660e-17
5963.32280 1.56687e-17
5965.32260 1.56714e-17
5967.33250 1.54942e-17
5969.33230 1.51962e-17
5971.34220 1.54158e-17
5973.34200 1.51603e-17
5975.35190 1.51689e-17
5977.35170 1.48330e-17
5979.36160 1.49264e-17
5981.36140 1.55029e-17
5983.37130 1.55381e-17
5985.37110 1.53003e-17
5987.37090 1.51671e-17
5989.38080 1.49607e-17
5991.38060 1.51019e-17
5993.39050 1.53405e-17
5995.39030 1.51893e-17
5997.40020 1.48738e-17
5999.40000 1.48802e-17
6001.40990 1.49033e-17
6003.40970 1.47828e-17
6005.41960 1.45651e-17
6007.41940 1.47074e-17
6009.42930 1.47677e-17
6011.42910 1.45701e-17
6013.43900 1.47448e-17
6015.43880 1.46002e-17
6017.44870 1.47575e-17
6019.44850 1.49646e-17
6021.44830 1.44656e-17
6023.45820 1.43739e-17
6025.45800 1.44125e-17
6027.46790 1.44486e-17
6029.46770 1.43625e-17
6031.47760 1.40601e-17
6033.47740 1.39389e-17
6035.48730 1.40126e-17
6037.48710 1.42622e-17
6039.49700 1.41044e-17
6041.49680 1.41863e-17
6043.50670 1.40728e-17
6045.50650 1.38753e-17
6047.51640 1.40028e-17
6049.51620 1.36896e-17
6051.51600 1.36180e-17
6053.52590 1.34413e-17
6055.52570 1.35354e-17
6057.53560 1.35103e-17
6059.53540 1.31778e-17
6061.54530 1.30028e-17
6063.54510 1.31307e-17
6065.55500 1.32814e-17
6067.55480 1.32093e-17
6069.56470 1.28575e-17
6071.56450 1.25396e-17
6073.57440 1.27389e-17
6075.57420 1.30100e-17
6077.58410 1.28515e-17
6079.58390 1.30688e-17
6081.59380 1.28403e-17
6083.59360 1.23436e-17
6085.59340 1.25868e-17
6087.60330 1.26894e-17
6089.60310 1.29646e-17
6091.61300 1.24454e-17
6093.61280 1.22504e-17
6095.62270 1.24778e-17
6097.62250 1.22175e-17
6099.63240 1.21911e-17
6101.63220 1.21902e-17
6103.64210 1.23327e-17
6105.64190 1.22047e-17
6107.65180 1.23824e-17
6109.65160 1.24803e-17
6111.66150 1.23904e-17
6113.66130 1.25431e-17
6115.66110 1.22865e-17
6117.67100 1.22736e-17
6119.67080 1.25183e-17
6121.68070 1.21478e-17
6123.68050 1.23730e-17
6125.69040 1.26651e-17
6127.69020 1.25769e-17
6129.70010 1.24411e-17
6131.69990 1.25170e-17
6133.70980 1.25453e-17
6135.70960 1.23866e-17
6137.71950 1.23322e-17
6139.71930 1.23014e-17
6141.72920 1.23136e-17
6143.72900 1.21935e-17
6145.73890 1.24117e-17
6147.73870 1.26197e-17
6149.73850 1.23609e-17
6151.74840 1.22793e-17
6153.74820 1.23927e-17
6155.75810 1.23473e-17
6157.75790 1.19936e-17
6159.76780 1.22891e-17
6161.76760 1.23451e-17
6163.77750 1.24909e-17
6165.77730 1.24162e-17
6167.78720 1.22460e-17
6169.78700 1.20554e-17
6171.79690 1.19939e-17
6173.79670 1.22174e-17
6175.80660 1.23485e-17
6177.80640 1.23358e-17
6179.81630 1.22789e-17
6181.81610 1.22127e-17
6183.81590 1.23787e-17
6185.82580 1.26456e-17
6187.82560 1.23689e-17
6189.83550 1.22308e-17
6191.83530 1.21915e-17
6193.84520 1.23971e-17
6195.84500 1.24380e-17
6197.85490 1.24531e-17
6199.85470 1.23845e-17
6201.86460 1.23907e-17
6203.86440 1.24464e-17
6205.87430 1.20375e-17
6207.87410 1.19162e-17
6209.88400 1.23189e-17
6211.88380 1.24544e-17
6213.89370 1.23029e-17
6215.89350 1.23398e-17
6217.89330 1.21824e-17
6219.90320 1.20429e-17
6221.90300 1.21007e-17
6223.91290 1.22701e-17
6225.91270 1.24790e-17
6227.92260 1.21604e-17
6229.92240 1.21079e-17
6231.93230 1.21161e-17
6233.93210 1.21104e-17
6235.94200 1.19888e-17
6237.94180 1.21935e-17
6239.95170 1.23303e-17
6241.95150 1.23531e-17
6243.96140 1.21942e-17
6245.96120 1.20071e-17
6247.96100 1.20095e-17
6249.97090 1.17980e-17
6251.97070 1.20993e-17
6253.98060 1.21577e-17
6255.98040 1.19886e-17
6257.99030 1.18457e-17
6259.99010 1.17086e-17
6262.00000 1.21629e-17
6263.99980 1.18522e-17
6266.00970 1.18276e-17
6268.00950 1.20211e-17
6270.01940 1.23025e-17
6272.01920 1.22783e-17
6274.02910 1.24001e-17
6276.02890 1.26753e-17
6278.03880 1.25109e-17
6280.03860 1.22882e-17
6282.03840 1.26413e-17
6284.04830 1.25189e-17
6286.04810 1.27244e-17
6288.05800 1.29036e-17
6290.05780 1.26844e-17
6292.06770 1.29161e-17
6294.06750 1.30668e-17
6296.07740 1.29199e-17
6298.07720 1.38186e-17
6300.08710 1.39014e-17
6302.08690 1.33547e-17
6304.09680 1.32457e-17
6306.09660 1.30221e-17
6308.10650 1.29154e-17
6310.10630 1.30401e-17
6312.10610 1.35188e-17
6314.11600 1.32091e-17
6316.11580 1.34628e-17
6318.12570 1.38261e-17
6320.12550 1.41372e-17
6322.13540 1.35211e-17
6324.13520 1.35138e-17
6326.14510 1.33893e-17
6328.14490 1.38980e-17
6330.15480 1.39266e-17
6332.15460 1.39133e-17
6334.16450 1.37433e-17
6336.16430 1.41078e-17
6338.17420 1.40467e-17
6340.17400 1.39598e-17
6342.18390 1.37659e-17
6344.18370 1.39882e-17
6346.18350 1.37679e-17
6348.19340 1.34462e-17
6350.19320 1.31675e-17
6352.20310 1.34694e-17
6354.20290 1.39199e-17
6356.21280 1.42149e-17
6358.21260 1.44120e-17
6360.22250 1.45013e-17
6362.22230 1.51180e-17
6364.23220 1.55665e-17
6366.23200 1.54328e-17
6368.24190 1.53718e-17
6370.24170 1.49878e-17
6372.25160 1.47795e-17
6374.25140 1.48298e-17
6376.25120 1.48728e-17
6378.26110 1.48860e-17
6380.26090 1.49450e-17
6382.27080 1.49914e-17
6384.27060 1.49702e-17
6386.28050 1.49205e-17
6388.28030 1.49453e-17
6390.29020 1.54727e-17
6392.29000 1.52286e-17
6394.29990 1.51196e-17
6396.29970 1.53828e-17
6398.30960 1.55132e-17
6400.30940 1.52196e-17
6402.31930 1.55165e-17
6404.31910 1.56566e-17
6406.32900 1.55008e-17
6408.32880 1.52659e-17
6410.32860 1.54736e-17
6412.33850 1.55827e-17
6414.33830 1.58493e-17
6416.34820 1.58117e-17
6418.34800 1.60384e-17
6420.35790 1.58761e-17
6422.35770 1.58937e-17
6424.36760 1.58028e-17
6426.36740 1.59736e-17
6428.37730 1.60003e-17
6430.37710 1.61621e-17
6432.38700 1.63351e-17
6434.38680 1.62769e-17
6436.39670 1.62644e-17
6438.39650 1.59912e-17
6440.40640 1.59141e-17
6442.40620 1.59396e-17
6444.40600 1.59569e-17
6446.41590 1.59387e-17
6448.41570 1.58323e-17
6450.42560 1.63784e-17
6452.42540 1.60691e-17
6454.43530 1.61518e-17
6456.43510 1.61545e-17
6458.44500 1.64309e-17
6460.44480 1.63449e-17
6462.45470 1.60981e-17
6464.45450 1.61198e-17
6466.46440 1.63058e-17
6468.46420 1.61226e-17
6470.47410 1.63349e-17
6472.47390 1.61274e-17
6474.48380 1.63358e-17
6476.48360 1.63164e-17
6478.48340 1.62614e-17
6480.49330 1.59331e-17
6482.49310 1.60787e-17
6484.50300 1.63282e-17
6486.50280 1.64853e-17
6488.51270 1.60931e-17
6490.51250 1.58607e-17
6492.52240 1.61105e-17
6494.52220 1.62209e-17
6496.53210 1.61028e-17
6498.53190 1.60965e-17
6500.54180 1.62826e-17
6502.54160 1.64833e-17
6504.55150 1.62774e-17
6506.55130 1.59869e-17
6508.56120 1.60256e-17
6510.56100 1.60990e-17
6512.56080 1.61087e-17
6514.57070 1.59368e-17
6516.57050 1.59892e-17
6518.58040 1.61773e-17
6520.58020 1.62002e-17
6522.59010 1.60793e-17
6524.58990 1.61601e-17
6526.59980 1.60934e-17
6528.59960 1.60786e-17
6530.60950 1.61431e-17
6532.60930 1.59263e-17
6534.61920 1.58562e-17
6536.61900 1.60589e-17
6538.62890 1.60253e-17
6540.62870 1.59744e-17
6542.62850 1.56531e-17
6544.63840 1.56352e-17
6546.63820 1.57228e-17
6548.64810 1.53527e-17
6550.64790 1.58455e-17
6552.65780 1.57555e-17
6554.65760 1.57280e-17
6556.66750 1.54693e-17
6558.66730 1.52933e-17
6560.67720 1.56781e-17
6562.67700 1.52949e-17
6564.68690 1.48821e-17
6566.68670 1.53850e-17
6568.69660 1.54745e-17
6570.69640 1.54271e-17
6572.69620 1.51233e-17
6574.70610 1.50497e-17
6576.70590 1.52195e-17
6578.71580 1.46804e-17
6580.71560 1.49667e-17
6582.72550 1.50395e-17
6584.72530 1.51302e-17
6586.73520 1.50218e-17
6588.73500 1.48575e-17
6590.74490 1.50737e-17
6592.74470 1.48196e-17
6594.75460 1.47352e-17
6596.75440 1.47853e-17
6598.76430 1.48354e-17
6600.76410 1.48855e-17
6602.77400 1.49356e-17
6604.77380 1.49857e-17
6606.77360 1.50357e-17
6608.78350 1.50858e-17
6610.78330 1.51359e-17
6612.79320 1.51859e-17
6614.79300 1.52360e-17
6616.80290 1.52860e-17
6618.80270 1.53360e-17
6620.81260 1.53861e-17
6622.81240 1.54361e-17
6624.82230 1.54861e-17
6626.82210 1.55361e-17
6628.83200 1.55861e-17
6630.83180 1.56361e-17
6632.84170 1.56860e-17
6634.84150 1.56124e-17
6636.85140 1.55388e-17
6638.85120 1.54653e-17
6640.85100 1.53917e-17
6642.86090 1.53181e-17
6644.86070 1.52446e-17
6646.87060 1.51710e-17
6648.87040 1.50975e-17
6650.88030 1.50240e-17
6652.88010 1.49505e-17
6654.89000 1.48770e-17
6656.88980 1.48035e-17
6658.89970 1.47300e-17
6660.89950 1.46566e-17
6662.90940 1.45831e-17
6664.90920 1.45097e-17
6666.91910 1.44362e-17
6668.91890 1.43628e-17
6670.92880 1.46046e-17
6672.92860 1.43408e-17
6674.92840 1.42931e-17
6676.93830 1.43677e-17
6678.93810 1.44261e-17
6680.94800 1.43089e-17
6682.94780 1.42558e-17
6684.95770 1.43536e-17
6686.95750 1.41875e-17
6688.96740 1.43155e-17
6690.96720 1.43552e-17
6692.97710 1.44407e-17
6694.97690 1.46063e-17
6696.98680 1.50628e-17
6698.98660 1.44907e-17
6700.99650 1.41652e-17
6702.99630 1.45837e-17
6704.99610 1.46591e-17
6707.00600 1.45229e-17
6709.00580 1.46270e-17
6711.01570 1.45003e-17
6713.01550 1.47929e-17
6715.02540 1.49581e-17
6717.02520 1.49271e-17
6719.03510 1.47514e-17
6721.03490 1.46344e-17
6723.04480 1.45283e-17
6725.04460 1.47241e-17
6727.05450 1.47930e-17
6729.05430 1.47243e-17
6731.06420 1.52452e-17
6733.06400 1.49513e-17
6735.07390 1.49569e-17
6737.07370 1.49040e-17
6739.07350 1.51457e-17
6741.08340 1.52970e-17
6743.08320 1.50610e-17
6745.09310 1.55657e-17
6747.09290 1.57896e-17
6749.10280 1.57941e-17
6751.10260 1.53130e-17
6753.11250 1.47733e-17
6755.11230 1.47389e-17
6757.12220 1.46424e-17
6759.12200 1.46724e-17
6761.13190 1.46517e-17
6763.13170 1.44624e-17
6765.14160 1.43253e-17
6767.14140 1.47445e-17
6769.14120 1.51638e-17
6771.15110 1.55830e-17
6773.15090 1.60020e-17
6775.16080 1.64211e-17
6777.16060 1.68400e-17
6779.17050 1.72589e-17
6781.17030 1.70470e-17
6783.18020 1.68352e-17
6785.18000 1.66233e-17
6787.18990 1.64115e-17
6789.18970 1.61998e-17
6791.19960 1.59880e-17
6793.19940 1.57763e-17
6795.20930 1.55647e-17
6797.20910 1.53530e-17
6799.21900 1.51414e-17
6801.21880 1.49298e-17
6803.21860 1.47182e-17
6805.22850 1.45067e-17
6807.22830 1.42953e-17
6809.23820 1.40838e-17
6811.23800 1.38723e-17
6813.24790 1.36610e-17
6815.24770 1.34496e-17
6817.25760 1.32383e-17
6819.25740 1.35475e-17
6821.26730 1.32584e-17
6823.26710 1.30274e-17
6825.27700 1.31131e-17
6827.27680 1.31290e-17
6829.28670 1.31321e-17
6831.28650 1.32519e-17
6833.29640 1.32377e-17
6835.29620 1.31166e-17
6837.29600 1.33518e-17
6839.30590 1.30899e-17
6841.30570 1.31110e-17
6843.31560 1.29701e-17
6845.31540 1.29854e-17
6847.32530 1.30006e-17
6849.32510 1.30159e-17
6851.33500 1.30311e-17
6853.33480 1.30464e-17
6855.34470 1.30616e-17
6857.34450 1.30769e-17
6859.35440 1.30921e-17
6861.35420 1.31073e-17
6863.36410 1.31226e-17
6865.36390 1.31378e-17
6867.37380 1.31530e-17
6869.37360 1.31683e-17
6871.37340 1.31835e-17
6873.38330 1.31987e-17
6875.38310 1.32139e-17
6877.39300 1.32292e-17
6879.39280 1.32444e-17
6881.40270 1.32596e-17
6883.40250 1.32748e-17
6885.41240 1.32900e-17
6887.41220 1.33052e-17
6889.42210 1.33204e-17
6891.42190 1.33356e-17
6893.43180 1.33508e-17
6895.43160 1.33660e-17
6897.44150 1.33812e-17
6899.44130 1.33964e-17
6901.44110 1.34116e-17
6903.45100 1.34268e-17
6905.45080 1.34419e-17
6907.46070 1.34571e-17
6909.46050 1.34723e-17
6911.47040 1.34875e-17
6913.47020 1.35027e-17
6915.48010 1.35178e-17
6917.47990 1.35330e-17
6919.48980 1.35482e-17
6921.48960 1.35633e-17
6923.49950 1.35785e-17
6925.49930 1.35936e-17
6927.50920 1.36088e-17
6929.50900 1.36239e-17
6931.50880 1.36391e-17
6933.51870 1.36542e-17
6935.51850 1.36694e-17
6937.52840 1.35218e-17
6939.52820 1.37702e-17
6941.53810 1.39451e-17
6943.53790 1.38324e-17
6945.54780 1.40369e-17
6947.54760 1.42384e-17
6949.55750 1.37338e-17
6951.55730 1.41650e-17
6953.56720 1.46338e-17
6955.56700 1.44322e-17
6957.57690 1.42162e-17
6959.57670 1.44303e-17
6961.58660 1.45006e-17
6963.58640 1.41028e-17
6965.58620 1.43729e-17
6967.59610 1.43498e-17
6969.59590 1.47129e-17
6971.60580 1.46680e-17
6973.60560 1.46231e-17
6975.61550 1.45782e-17
6977.61530 1.45333e-17
6979.62520 1.44884e-17
6981.62500 1.44435e-17
6983.63490 1.46565e-17
6985.63470 1.46693e-17
6987.64460 1.46467e-17
6989.64440 1.46168e-17
6991.65430 1.46473e-17
6993.65410 1.46048e-17
6995.66400 1.44699e-17
6997.66380 1.45015e-17
6999.66360 1.45061e-17
7001.67350 1.43535e-17
7003.67330 1.42071e-17
7005.68320 1.44485e-17
7007.68300 1.40824e-17
7009.69290 1.41591e-17
7011.69270 1.48636e-17
7013.70260 1.44767e-17
7015.70240 1.43494e-17
7017.71230 1.45123e-17
7019.71210 1.42911e-17
7021.72200 1.43401e-17
7023.72180 1.42920e-17
7025.73170 1.41964e-17
7027.73150 1.42934e-17
7029.74140 1.41138e-17
7031.74120 1.45052e-17
7033.74100 1.40334e-17
7035.75090 1.38767e-17
7037.75070 1.43226e-17
7039.76060 1.40798e-17
7041.76040 1.41898e-17
7043.77030 1.39534e-17
7045.77010 1.40084e-17
7047.78000 1.39708e-17
7049.77980 1.40242e-17
7051.78970 1.47925e-17
7053.78950 1.41766e-17
7055.79940 1.41050e-17
7057.79920 1.43895e-17
7059.80910 1.45256e-17
7061.80890 1.44294e-17
7063.81880 1.43974e-17
7065.81860 1.42145e-17
7067.81840 1.41145e-17
7069.82830 1.41253e-17
7071.82810 1.43940e-17
7073.83800 1.46401e-17
7075.83780 1.45773e-17
7077.84770 1.47571e-17
7079.84750 1.46910e-17
7081.85740 1.47616e-17
7083.85720 1.48018e-17
7085.86710 1.49591e-17
7087.86690 1.54586e-17
7089.87680 1.51044e-17
7091.87660 1.50015e-17
7093.88650 1.56007e-17
7095.88630 1.54935e-17
7097.88610 1.51941e-17
7099.89600 1.52580e-17
7101.89580 1.51718e-17
7103.90570 1.55392e-17
7105.90550 1.58695e-17
7107.91540 1.57331e-17
7109.91520 1.59773e-17
7111.92510 1.55293e-17
7113.92490 1.55992e-17
7115.93480 1.56671e-17
7117.93460 1.54623e-17
7119.94450 1.60226e-17
7121.94430 1.60197e-17
7123.95420 1.63283e-17
7125.95400 1.55722e-17
7127.96390 1.56834e-17
7129.96370 1.57795e-17
7131.96350 1.61072e-17
7133.97340 1.59197e-17
7135.97320 1.63131e-17
7137.98310 1.64215e-17
7139.98290 1.61234e-17
7141.99280 1.59779e-17
7143.99260 1.56235e-17
7146.00250 1.54083e-17
7148.00230 1.54970e-17
7150.01220 1.55609e-17
7152.01200 1.55837e-17
7154.02190 1.54984e-17
7156.02170 1.54769e-17
7158.03160 1.58592e-17
7160.03140 1.56921e-17
7162.03120 1.55310e-17
7164.04110 1.56034e-17
7166.04090 1.57849e-17
7168.05080 1.57221e-17
7170.05060 1.57143e-17
7172.06050 1.57541e-17
7174.06030 1.55141e-17
7176.07020 1.51592e-17
7178.07000 1.53124e-17
7180.07990 1.54891e-17
7182.07970 1.55727e-17
7184.08960 1.54012e-17
7186.08940 1.50719e-17
7188.09930 1.50902e-17
7190.09910 1.53103e-17
7192.10900 1.53168e-17
7194.10880 1.53003e-17
7196.10860 1.54633e-17
7198.11850 1.54975e-17
7200.11830 1.52165e-17
7202.12820 1.52172e-17
7204.12800 1.53657e-17
7206.13790 1.60608e-17
7208.13770 1.68103e-17
7210.14760 1.71030e-17
7212.14740 1.68071e-17
7214.15730 1.61252e-17
7216.15710 1.58192e-17
7218.16700 1.58080e-17
7220.16680 1.54731e-17
7222.17670 1.57862e-17
7224.17650 1.57126e-17
7226.17630 1.53312e-17
7228.18620 1.58206e-17
7230.18600 1.49198e-17
7232.19590 1.49473e-17
7234.19570 1.52166e-17
7236.20560 1.49725e-17
7238.20540 1.49490e-17
7240.21530 1.56324e-17
7242.21510 1.51848e-17
7244.22500 1.47229e-17
7246.22480 1.49099e-17
7248.23470 1.52327e-17
7250.23450 1.54675e-17
7252.24440 1.50266e-17
7254.24420 1.51360e-17
7256.25410 1.52761e-17
7258.25390 1.53083e-17
7260.25370 1.56464e-17
7262.26360 1.55016e-17
7264.26340 1.53501e-17
7266.27330 1.52720e-17
7268.27310 1.51806e-17
7270.28300 1.50348e-17
7272.28280 1.47788e-17
7274.29270 1.48062e-17
7276.29250 1.46345e-17
7278.30240 1.49148e-17
7280.30220 1.48960e-17
7282.31210 1.47326e-17
7284.31190 1.48069e-17
7286.32180 1.48796e-17
7288.32160 1.47132e-17
7290.33150 1.43627e-17
7292.33130 1.44808e-17
7294.33110 1.45354e-17
7296.34100 1.43488e-17
7298.34080 1.41325e-17
7300.35070 1.45311e-17
7302.35050 1.48452e-17
7304.36040 1.49563e-17
7306.36020 1.49351e-17
7308.37010 1.48310e-17
7310.36990 1.48892e-17
7312.37980 1.48285e-17
7314.37960 1.50043e-17
7316.38950 1.47999e-17
7318.38930 1.50514e-17
7320.39920 1.50823e-17
7322.39900 1.48253e-17
7324.40890 1.48638e-17
7326.40870 1.47585e-17
7328.40850 1.49283e-17
7330.41840 1.52123e-17
7332.41820 1.50591e-17
7334.42810 1.48250e-17
7336.42790 1.46096e-17
7338.43780 1.49354e-17
7340.43760 1.48961e-17
7342.44750 1.47995e-17
7344.44730 1.45226e-17
7346.45720 1.44355e-17
7348.45700 1.45157e-17
7350.46690 1.47277e-17
7352.46670 1.44173e-17
7354.47660 1.44652e-17
7356.47640 1.46733e-17
7358.47620 1.47417e-17
7360.48610 1.47600e-17
7362.48590 1.47383e-17
7364.49580 1.47467e-17
7366.49560 1.50688e-17
7368.50550 1.47583e-17
7370.50530 1.44436e-17
7372.51520 1.45206e-17
7374.51500 1.43618e-17
7376.52490 1.44976e-17
7378.52470 1.43739e-17
7380.53460 1.45836e-17
7382.53440 1.44405e-17
7384.54430 1.42612e-17
7386.54410 1.46613e-17
7388.55400 1.44063e-17
7390.55380 1.44947e-17
7392.55360 1.42095e-17
7394.56350 1.46432e-17
7396.56330 1.48037e-17
7398.57320 1.48091e-17
7400.57300 1.46224e-17
7402.58290 1.43107e-17
7404.58270 1.46270e-17
7406.59260 1.47009e-17
7408.59240 1.45673e-17
7410.60230 1.43986e-17
7412.60210 1.41594e-17
7414.61200 1.41347e-17
7416.61180 1.40777e-17
7418.62170 1.39465e-17
7420.62150 1.35952e-17
7422.62130 1.34759e-17
7424.63120 1.38179e-17
7426.63100 1.39088e-17
7428.64090 1.35711e-17
7430.64070 1.33178e-17
7432.65060 1.33460e-17
7434.65040 1.33571e-17
7436.66030 1.33704e-17
7438.66010 1.34230e-17
7440.67000 1.37743e-17
7442.66980 1.33906e-17
7444.67970 1.33991e-17
7446.67950 1.34932e-17
7448.68940 1.31486e-17
7450.68920 1.31737e-17
7452.69910 1.30845e-17
7454.69890 1.33736e-17
7456.69870 1.31555e-17
7458.70860 1.32046e-17
7460.70840 1.30539e-17
7462.71830 1.31608e-17
7464.71810 1.32819e-17
7466.72800 1.35577e-17
7468.72780 1.33765e-17
7470.73770 1.34479e-17
7472.73750 1.33422e-17
7474.74740 1.29873e-17
7476.74720 1.24832e-17
7478.75710 1.27768e-17
7480.75690 1.28357e-17
7482.76680 1.25264e-17
7484.76660 1.27820e-17
7486.77650 1.26109e-17
7488.77630 1.25476e-17
7490.77610 1.27257e-17
7492.78600 1.27732e-17
7494.78580 1.28672e-17
7496.79570 1.28914e-17
7498.79550 1.26997e-17
7500.80540 1.24123e-17
7502.80520 1.23773e-17
7504.81510 1.25497e-17
7506.81490 1.22782e-17
7508.82480 1.24749e-17
7510.82460 1.27192e-17
7512.83450 1.20843e-17
7514.83430 1.22198e-17
7516.84420 1.25423e-17
7518.84400 1.25792e-17
7520.84380 1.23034e-17
7522.85370 1.25526e-17
7524.85350 1.26794e-17
7526.86340 1.23367e-17
7528.86320 1.22373e-17
7530.87310 1.21544e-17
7532.87290 1.22624e-17
7534.88280 1.22173e-17
7536.88260 1.23239e-17
7538.89250 1.23564e-17
7540.89230 1.22500e-17
7542.90220 1.21928e-17
7544.90200 1.24276e-17
7546.91190 1.26711e-17
7548.91170 1.20493e-17
7550.91150 1.20835e-17
7552.92140 1.21177e-17
7554.92120 1.21518e-17
7556.93110 1.21860e-17
7558.93090 1.22202e-17
7560.94080 1.22544e-17
7562.94060 1.22885e-17
7564.95050 1.23227e-17
7566.95030 1.23569e-17
7568.96020 1.23910e-17
7570.96000 1.24251e-17
7572.96990 1.24593e-17
7574.96970 1.24934e-17
7576.97960 1.25275e-17
7578.97940 1.25617e-17
7580.98930 1.25958e-17
7582.98910 1.26299e-17
7584.99900 1.26640e-17
7586.99880 1.26981e-17
7588.99860 1.27321e-17
7591.00850 1.27662e-17
7593.00830 1.28003e-17
7595.01820 1.28344e-17
7597.01800 1.28684e-17
7599.02790 1.29025e-17
7601.02770 1.29365e-17
7603.03760 1.29706e-17
7605.03740 1.30046e-17
7607.04730 1.30386e-17
7609.04710 1.30727e-17
7611.05700 1.31067e-17
7613.05680 1.31407e-17
7615.06670 1.31747e-17
7617.06650 1.32087e-17
7619.07640 1.32427e-17
7621.07620 1.32767e-17
7623.07600 1.33107e-17
7625.08590 1.33447e-17
7627.08570 1.33786e-17
7629.09560 1.34126e-17
7631.09540 1.34466e-17
7633.10530 1.34805e-17
7635.10510 1.35145e-17
7637.11500 1.35484e-17
7639.11480 1.35823e-17
7641.12470 1.36163e-17
7643.12450 1.36502e-17
7645.13440 1.36841e-17
7647.13420 1.37180e-17
7649.14410 1.37519e-17
7651.14390 1.37858e-17
7653.15380 1.38197e-17
7655.15360 1.38536e-17
7657.15340 1.38875e-17
7659.16330 1.39213e-17
7661.16310 1.39552e-17
7663.17300 1.39891e-17
7665.17280 1.40229e-17
7667.18270 1.40568e-17
7669.18250 1.40906e-17
7671.19240 1.41245e-17
7673.19220 1.41583e-17
7675.20210 1.41921e-17
7677.20190 1.42259e-17
7679.21180 1.42598e-17
7681.21160 1.42936e-17
7683.22150 1.46044e-17
7685.22130 1.48077e-17
7687.22110 1.48226e-17
7689.23100 1.49067e-17
7691.23080 1.47130e-17
7693.24070 1.46383e-17
7695.24050 1.48363e-17
7697.25040 1.47055e-17
7699.25020 1.49445e-17
7701.26010 1.48179e-17
7703.25990 1.47081e-17
7705.26980 1.45233e-17
7707.26960 1.44019e-17
7709.27950 1.44450e-17
7711.27930 1.48770e-17
7713.28920 1.49588e-17
7715.28900 1.48737e-17
7717.28880 1.47102e-17
7719.29870 1.47132e-17
7721.29850 1.45976e-17
7723.30840 1.42198e-17
7725.30820 1.44634e-17
7727.31810 1.46204e-17
7729.31790 1.47450e-17
7731.32780 1.43623e-17
7733.32760 1.45372e-17
7735.33750 1.40671e-17
7737.33730 1.41576e-17
7739.34720 1.39902e-17
7741.34700 1.36953e-17
7743.35690 1.35164e-17
7745.35670 1.38692e-17
7747.36660 1.39111e-17
7749.36640 1.38611e-17
7751.36620 1.44890e-17
7753.37610 1.39167e-17
7755.37590 1.39831e-17
7757.38580 1.41863e-17
7759.38560 1.41425e-17
7761.39550 1.34825e-17
7763.39530 1.35870e-17
7765.40520 1.35268e-17
7767.40500 1.35444e-17
7769.41490 1.33679e-17
7771.41470 1.32377e-17
7773.42460 1.28416e-17
7775.42440 1.28790e-17
7777.43430 1.31098e-17
7779.43410 1.31014e-17
7781.44400 1.29232e-17
7783.44380 1.29233e-17
7785.44360 1.33611e-17
7787.45350 1.33338e-17
7789.45330 1.31116e-17
7791.46320 1.30447e-17
7793.46300 1.29198e-17
7795.47290 1.28232e-17
7797.47270 1.32921e-17
7799.48260 1.27544e-17
7801.48240 1.27197e-17
7803.49230 1.24609e-17
7805.49210 1.23669e-17
7807.50200 1.22327e-17
7809.50180 1.18539e-17
7811.51170 1.19595e-17
7813.51150 1.19419e-17
7815.51130 1.19533e-17
7817.52120 1.16046e-17
7819.52100 1.17045e-17
7821.53090 1.17955e-17
7823.53070 1.16060e-17
7825.54060 1.09046e-17
7827.54040 1.12938e-17
7829.55030 1.12676e-17
7831.55010 1.13831e-17
7833.56000 1.09733e-17
7835.55980 1.10654e-17
7837.56970 1.08639e-17
7839.56950 1.06397e-17
7841.57940 1.05943e-17
7843.57920 1.04048e-17
7845.57900 1.05577e-17
7847.58890 1.01401e-17
7849.58870 9.99200e-18
7851.59860 1.01889e-17
7853.59840 1.03207e-17
7855.60830 1.06293e-17
7857.60810 1.01243e-17
7859.61800 9.90687e-18
7861.61780 9.95758e-18
7863.62770 9.88462e-18
7865.62750 9.37743e-18
7867.63740 9.30479e-18
7869.63720 9.49148e-18
7871.64710 9.60715e-18
7873.64690 9.01274e-18
7875.65680 9.07009e-18
7877.65660 9.19763e-18
7879.65640 9.17229e-18
7881.66630 9.20451e-18
7883.66610 9.27979e-18
7885.67600 9.13998e-18
7887.67580 8.96812e-18
7889.68570 9.10266e-18
7891.68550 8.87148e-18
7893.69540 8.66219e-18
7895.69520 8.50036e-18
7897.70510 8.71986e-18
7899.70490 8.15985e-18
7901.71480 8.01128e-18
7903.71460 8.18210e-18
7905.72450 8.05633e-18
7907.72430 8.08207e-18
7909.73420 7.69385e-18
7911.73400 7.66026e-18
7913.73380 7.75070e-18
7915.74370 7.73828e-18
7917.74350 7.35230e-18
7919.75340 6.98935e-18
7921.75320 7.19819e-18
7923.76310 7.53501e-18
7925.76290 7.27928e-18
7927.77280 7.40632e-18
7929.77260 7.23226e-18
7931.78250 6.91010e-18
7933.78230 6.90110e-18
7935.79220 7.15644e-18
7937.79200 6.98676e-18
7939.80190 6.88542e-18
7941.80170 6.83842e-18
7943.81160 6.59945e-18
7945.81140 6.89791e-18
7947.81120 6.86617e-18
7949.82110 6.76202e-18
7951.82090 6.78111e-18
7953.83080 6.72417e-18
7955.83060 6.94538e-18
7957.84050 6.66454e-18
7959.84030 6.57443e-18
7961.85020 6.86902e-18
7963.85000 6.68254e-18
7965.85990 6.90285e-18
7967.85970 6.50143e-18
7969.86960 6.35755e-18
7971.86940 6.02995e-18
7973.87930 6.19450e-18
7975.87910 6.26224e-18
7977.88900 6.54577e-18
7979.88880 6.75404e-18
7981.88860 6.12058e-18
7983.89850 6.31691e-18
7985.89830 6.51812e-18
7987.90820 6.23894e-18
7989.90800 5.72750e-18
7991.91790 6.16163e-18
7993.91770 6.31466e-18
7995.92760 6.19850e-18
7997.92740 6.19595e-18
7999.93730 6.40609e-18
8001.93710 6.15989e-18
8003.94700 6.12986e-18
8005.94680 6.06970e-18
8007.95670 5.95408e-18
8009.95650 5.93316e-18
8011.95630 5.78950e-18
8013.96620 5.97568e-18
8015.96600 5.97537e-18
8017.97590 6.04262e-18
8019.97570 6.02709e-18
8021.98560 5.76720e-18
8023.98540 5.75500e-18
8025.99530 5.74173e-18
8027.99510 5.75822e-18
8030.00500 5.76241e-18
8032.00480 5.97270e-18
8034.01470 5.99167e-18
8036.01450 5.90249e-18
8038.02440 6.07580e-18
8040.02420 5.85277e-18
8042.02400 5.95917e-18
8044.03390 6.12855e-18
8046.03370 5.86178e-18
8048.04360 6.10774e-18
8050.04340 5.95069e-18
8052.05330 6.15131e-18
8054.05310 5.77330e-18
8056.06300 5.96612e-18
8058.06280 6.25182e-18
8060.07270 5.91584e-18
8062.07250 6.19150e-18
8064.08240 5.76939e-18
8066.08220 5.73585e-18
8068.09210 5.45306e-18
8070.09190 5.58330e-18
8072.10180 5.74007e-18
8074.10160 5.93154e-18
8076.10140 5.34434e-18
8078.11130 5.84945e-18
8080.11110 5.68042e-18
8082.12100 5.69884e-18
8084.12080 5.64658e-18
8086.13070 5.83017e-18
8088.13050 5.66055e-18
8090.14040 5.69603e-18
8092.14020 5.76596e-18
8094.15010 5.78601e-18
8096.14990 5.59349e-18
8098.15980 5.71358e-18
8100.15960 5.35018e-18
8102.16950 5.31111e-18
8104.16930 5.51546e-18
8106.17920 5.55397e-18
8108.17900 5.61985e-18
8110.17880 5.55635e-18
8112.18870 5.54631e-18
8114.18850 5.43849e-18
8116.19840 5.30690e-18
8118.19820 5.55041e-18
8120.20810 5.62682e-18
8122.20790 5.29413e-18
8124.21780 5.08567e-18
8126.21760 5.24642e-18
8128.22750 5.32807e-18
8130.22730 5.56360e-18
8132.23720 5.40456e-18
8134.23700 5.19787e-18
8136.24690 5.27804e-18
8138.24670 5.64463e-18
8140.24650 5.52481e-18
8142.25640 5.15557e-18
8144.25620 5.25335e-18
8146.26610 5.42331e-18
8148.26590 5.30573e-18
8150.27580 5.17500e-18
8152.27560 5.21921e-18
8154.28550 5.21209e-18
8156.28530 5.27633e-18
8158.29520 4.94859e-18
8160.29500 5.21946e-18
8162.30490 4.99387e-18
8164.30470 5.11520e-18
8166.31460 5.07135e-18
8168.31440 5.02691e-18
8170.32430 4.99388e-18
8172.32410 5.39803e-18
8174.32390 5.14636e-18
8176.33380 5.09956e-18
8178.33360 5.46498e-18
8180.34350 5.44206e-18
8182.34330 5.60194e-18
8184.35320 5.55981e-18
8186.35300 5.40775e-18
8188.36290 5.47824e-18
8190.36270 5.29649e-18
8192.37260 5.64852e-18
8194.37240 5.55166e-18
8196.38230 5.37275e-18
8198.38210 5.13729e-18
8200.39200 5.13555e-18
8202.39180 5.68236e-18
8204.40170 5.77984e-18
8206.40150 5.61026e-18
8208.40130 5.57952e-18
8210.41120 5.57690e-18
8212.41100 5.51760e-18
8214.42090 5.59595e-18
8216.42070 5.64170e-18
8218.43060 5.40545e-18
8220.43040 5.56886e-18
8222.44030 5.48491e-18
8224.44010 5.38310e-18
8226.45000 5.25437e-18
8228.44980 5.54003e-18
8230.45970 5.38512e-18
8232.45950 5.52256e-18
8234.46940 5.63566e-18
8236.46920 5.63477e-18
8238.46900 5.78419e-18
8240.47890 5.92847e-18
8242.47870 5.74585e-18
8244.48860 5.85410e-18
8246.48840 6.11251e-18
8248.49830 5.94843e-18
8250.49810 6.11106e-18
8252.50800 5.91488e-18
8254.50780 6.16592e-18
8256.51770 5.94722e-18
8258.51750 5.66902e-18
8260.52740 5.83511e-18
8262.52720 5.98962e-18
8264.53710 5.79388e-18
8266.53690 6.23168e-18
8268.54680 6.36326e-18
8270.54660 6.18217e-18
8272.54640 6.28715e-18
8274.55630 6.29452e-18
8276.55610 6.26019e-18
8278.56600 6.50226e-18
8280.56580 6.32389e-18
8282.57570 6.14544e-18
8284.57550 6.36652e-18
8286.58540 6.68985e-18
8288.58520 6.69396e-18
8290.59510 6.35182e-18
8292.59490 7.00111e-18
8294.60480 6.49554e-18
8296.60460 6.08096e-18
8298.61450 6.71232e-18
8300.61430 7.01750e-18
8302.62420 6.89130e-18
8304.62400 6.82595e-18
8306.62380 6.87202e-18
8308.63370 7.06371e-18
8310.63350 6.96721e-18
8312.64340 7.00212e-18
8314.64320 6.99417e-18
8316.65310 6.81308e-18
8318.65290 6.87166e-18
8320.66280 7.03625e-18
8322.66260 6.77991e-18
8324.67250 7.11633e-18
8326.67230 7.25265e-18
8328.68220 7.60342e-18
8330.68200 7.35140e-18
8332.69190 7.36347e-18
8334.69170 7.78808e-18
8336.70160 7.27287e-18
8338.70140 7.78131e-18
8340.70120 7.73692e-18
8342.71110 8.14902e-18
8344.71090 7.18696e-18
8346.72080 7.61142e-18
8348.72060 7.93748e-18
8350.73050 7.97558e-18
8352.73030 7.82376e-18
8354.74020 8.35769e-18
8356.74000 8.45920e-18
8358.74990 8.75619e-18
8360.74970 8.22338e-18
8362.75960 8.15063e-18
8364.75940 8.38132e-18
8366.76930 8.76154e-18
8368.76910 8.78852e-18
8370.76890 8.85063e-18
8372.77880 9.18594e-18
8374.77860 9.08940e-18
8376.78850 9.15349e-18
8378.78830 8.82839e-18
8380.79820 9.19705e-18
8382.79800 9.34761e-18
8384.80790 9.70155e-18
8386.80770 9.52008e-18
8388.81760 9.93440e-18
8390.81740 9.99418e-18
8392.82730 9.95627e-18
8394.82710 9.96383e-18
8396.83700 9.64168e-18
8398.83680 9.97447e-18
8400.84670 1.08640e-17
8402.84650 1.06227e-17
8404.84630 1.03610e-17
8406.85620 1.03976e-17
8408.85600 1.06512e-17
8410.86590 1.05294e-17
8412.86570 1.07894e-17
8414.87560 1.13602e-17
8416.87540 1.10351e-17
8418.88530 1.11988e-17
8420.88510 1.17461e-17
8422.89500 1.16090e-17
8424.89480 1.17173e-17
8426.90470 1.20734e-17
8428.90450 1.23241e-17
8430.91440 1.20588e-17
8432.91420 1.23486e-17
8434.92410 1.28682e-17
8436.92390 1.24140e-17
8438.92370 1.23843e-17
8440.93360 1.27286e-17
8442.93340 1.28755e-17
8444.94330 1.26916e-17
8446.94310 1.30661e-17
8448.95300 1.35507e-17
8450.95280 1.34660e-17
8452.96270 1.29485e-17
8454.96250 1.33640e-17
8456.97240 1.33237e-17
8458.97220 1.38251e-17
8460.98210 1.40244e-17
8462.98190 1.39065e-17
8464.99180 1.49876e-17
8466.99160 1.46248e-17
8468.99140 1.48444e-17
8471.00130 1.49391e-17
8473.00110 1.54877e-17
8475.01100 1.48582e-17
8477.01080 1.48593e-17
8479.02070 1.58575e-17
8481.02050 1.58575e-17
8483.03040 1.53111e-17
8485.03020 1.54983e-17
8487.04010 1.57133e-17
8489.03990 1.58051e-17
8491.04980 1.62915e-17
8493.04960 1.63427e-17
8495.05950 1.65039e-17
8497.05930 1.65852e-17
8499.06920 1.63295e-17
8501.06900 1.68052e-17
8503.06880 1.70615e-17
8505.07870 1.70121e-17
8507.07850 1.65485e-17
8509.08840 1.69749e-17
8511.08820 1.73456e-17
8513.09810 1.74405e-17
8515.09790 1.76768e-17
8517.10780 1.74457e-17
8519.10760 1.78690e-17
8521.11750 1.82659e-17
8523.11730 1.81965e-17
8525.12720 1.81957e-17
8527.12700 1.88032e-17
8529.13690 1.91900e-17
8531.13670 1.94823e-17
8533.14660 1.96316e-17
8535.14640 1.94472e-17
8537.14620 1.96296e-17
8539.15610 1.88912e-17
8541.15590 1.91255e-17
8543.16580 1.94646e-17
8545.16560 1.98164e-17
8547.17550 1.93703e-17
8549.17530 1.89553e-17
8551.18520 1.87683e-17
8553.18500 1.95219e-17
8555.19490 2.00826e-17
8557.19470 2.04282e-17
8559.20460 2.01827e-17
8561.20440 2.04967e-17
8563.20420 2.00842e-17
8565.21410 2.02026e-17
8567.21390 1.96838e-17
8569.22380 1.94063e-17
8571.22360 1.98683e-17
8573.23350 2.05677e-17
8575.23330 2.03181e-17
8577.24320 2.06055e-17
8579.24300 2.06307e-17
8581.25290 2.09154e-17
8583.25270 2.02332e-17
8585.26260 2.04996e-17
8587.26240 2.07834e-17
8589.27230 2.10824e-17
8591.27210 2.10559e-17
8593.28200 2.03629e-17
8595.28180 2.04122e-17
8597.29170 2.03454e-17
8599.29150 2.08946e-17
8601.29130 2.10193e-17
8603.30120 2.11192e-17
8605.30100 2.14725e-17
8607.31090 2.19031e-17
8609.31070 2.18620e-17
8611.32060 2.15606e-17
8613.32040 2.14196e-17
8615.33030 2.12774e-17
8617.33010 2.15929e-17
8619.34000 2.18118e-17
8621.33980 2.13932e-17
8623.34970 2.09840e-17
8625.34950 2.11976e-17
8627.35940 2.17268e-17
8629.35920 2.14158e-17
8631.35900 2.18197e-17
8633.36890 2.11966e-17
8635.36870 2.14432e-17
8637.37860 2.15422e-17
8639.37840 2.12056e-17
8641.38830 2.12060e-17
8643.38810 2.08786e-17
8645.39800 2.02889e-17
8647.39780 2.00742e-17
8649.40770 2.10107e-17
8651.40750 2.05502e-17
8653.41740 2.02245e-17
8655.41720 2.13310e-17
8657.42710 2.10270e-17
8659.42690 2.07152e-17
8661.42670 2.09530e-17
8663.43660 2.15835e-17
8665.43640 2.16060e-17
8667.44630 2.12141e-17
8669.44610 2.09653e-17
8671.45600 2.08344e-17
8673.45580 2.10672e-17
8675.46570 2.03831e-17
8677.46550 2.05361e-17
8679.47540 2.05032e-17
8681.47520 2.09366e-17
8683.48510 2.07431e-17
8685.48490 2.07337e-17
8687.49480 2.09031e-17
8689.49460 2.08519e-17
8691.50450 2.03784e-17
8693.50430 2.03896e-17
8695.51420 2.02976e-17
8697.51400 2.05262e-17
8699.51380 2.05506e-17
8701.52370 2.04083e-17
8703.52350 2.02050e-17
8705.53340 1.99108e-17
8707.53320 2.02327e-17
8709.54310 1.97986e-17
8711.54290 1.97820e-17
8713.55280 1.98610e-17
8715.55260 1.95766e-17
8717.56250 1.95148e-17
8719.56230 1.94406e-17
8721.57220 1.96450e-17
8723.57200 1.98073e-17
8725.58190 1.92983e-17
8727.58170 1.94449e-17
8729.58150 1.91581e-17
8731.59140 1.90939e-17
8733.59120 1.96322e-17
8735.60110 1.85909e-17
8737.60090 1.91059e-17
8739.61080 1.89880e-17
8741.61060 1.86158e-17
8743.62050 1.88167e-17
8745.62030 1.91914e-17
8747.63020 1.95068e-17
8749.63000 1.98052e-17
8751.63990 1.92404e-17
8753.63970 1.89897e-17
8755.64960 1.86317e-17
8757.64940 1.83848e-17
8759.64920 1.86660e-17
8761.65910 1.82951e-17
8763.65890 1.73801e-17
8765.66880 1.83016e-17
8767.66860 1.75858e-17
8769.67850 1.73104e-17
8771.67830 1.77968e-17
8773.68820 1.73716e-17
8775.68800 1.78264e-17
8777.69790 1.79290e-17
8779.69770 1.74695e-17
8781.70760 1.64754e-17
8783.70740 1.67621e-17
8785.71730 1.69897e-17
8787.71710 1.68843e-17
8789.72700 1.69517e-17
8791.72680 1.66409e-17
8793.73670 1.65149e-17
8795.73650 1.65157e-17
8797.73630 1.62028e-17
8799.74620 1.64884e-17
8801.74600 1.62569e-17
8803.75590 1.64354e-17
8805.75570 1.60433e-17
8807.76560 1.64077e-17
8809.76540 1.62143e-17
8811.77530 1.58155e-17
8813.77510 1.55495e-17
8815.78500 1.52209e-17
8817.78480 1.47533e-17
8819.79470 1.48594e-17
8821.79450 1.46511e-17
8823.80440 1.44626e-17
8825.80420 1.48755e-17
8827.80400 1.48118e-17
8829.81390 1.53449e-17
8831.81370 1.53243e-17
8833.82360 1.45982e-17
8835.82340 1.51340e-17
8837.83330 1.51792e-17
8839.83310 1.61944e-17
8841.84300 1.58871e-17
8843.84280 1.48912e-17
8845.85270 1.49732e-17
8847.85250 1.48758e-17
8849.86240 1.51526e-17
8851.86220 1.43739e-17
8853.87210 1.42161e-17
8855.87190 1.40651e-17
8857.87170 1.39925e-17
8859.88160 1.40646e-17
8861.88140 1.49161e-17
8863.89130 1.47746e-17
8865.89110 1.46134e-17
8867.90100 1.47121e-17
8869.90080 1.43615e-17
8871.91070 1.46459e-17
8873.91050 1.46836e-17
8875.92040 1.51515e-17
8877.92020 1.52540e-17
8879.93010 1.49917e-17
8881.92990 1.48730e-17
8883.93980 1.52445e-17
8885.93960 1.52643e-17
8887.94950 1.52548e-17
8889.94930 1.52146e-17
8891.95920 1.50716e-17
8893.95900 1.42378e-17
8895.95880 1.41973e-17
8897.96870 1.47724e-17
8899.96850 1.42489e-17
8901.97840 1.42470e-17
8903.97820 1.50592e-17
8905.98810 1.41992e-17
8907.98790 1.40664e-17
8909.99780 1.37273e-17
8911.99760 1.39861e-17
8914.00750 1.43169e-17
8916.00730 1.43961e-17
8918.01720 1.41684e-17
8920.01700 1.31045e-17
8922.02690 1.41195e-17
8924.02670 1.48531e-17
8926.03660 1.46504e-17
8928.03640 1.41830e-17
8930.03620 1.35571e-17
8932.04610 1.40369e-17
8934.04590 1.34365e-17
8936.05580 1.45466e-17
8938.05560 1.46079e-17
8940.06550 1.33175e-17
8942.06530 1.26081e-17
8944.07520 1.35261e-17
8946.07500 1.36275e-17
8948.08490 1.27014e-17
8950.08470 1.26511e-17
8952.09460 1.30640e-17
8954.09440 1.36578e-17
8956.10430 1.38025e-17
8958.10410 1.36214e-17
8960.10390 1.34952e-17
8962.11380 1.33647e-17
8964.11360 1.25179e-17
8966.12350 1.17867e-17
8968.12330 1.26430e-17
8970.13320 1.21315e-17
8972.13300 1.25785e-17
8974.14290 1.27067e-17
8976.14270 1.28090e-17
8978.15260 1.27457e-17
8980.15240 1.25715e-17
8982.16230 1.21506e-17
8984.16210 1.25419e-17
8986.17200 1.27482e-17
8988.17180 1.22281e-17
8990.18170 1.15361e-17
8992.18150 1.13455e-17
8994.18130 1.13097e-17
8996.19120 1.23333e-17
8998.19100 1.26384e-17
9000.20090 1.17720e-17
9002.20070 1.11951e-17
9004.21060 1.21077e-17
9006.21040 1.20615e-17
9008.22030 1.14894e-17
9010.22010 1.17600e-17
9012.23000 1.16939e-17
9014.22980 1.10012e-17
9016.23970 1.13064e-17
9018.23950 1.12886e-17
9020.23930 1.11169e-17
9022.24920 1.14224e-17
9024.25910 1.12779e-17
9026.25890 1.08311e-17
9028.25870 1.05898e-17
9030.26860 1.14472e-17
9032.26840 1.15669e-17
9034.27830 1.17923e-17
9036.27810 1.14532e-17
9038.28800 1.05555e-17
9040.28780 1.09724e-17
9042.29770 1.22442e-17
9044.29750 1.16823e-17
9046.30740 1.17545e-17
9048.30720 1.16472e-17
9050.31710 1.18896e-17
9052.31690 1.14369e-17
9054.31670 1.16388e-17
9056.32660 1.09782e-17
9058.32640 1.12158e-17
9060.33630 1.12203e-17
9062.33610 1.11045e-17
9064.34600 1.13684e-17
9066.34580 1.14819e-17
9068.35570 1.10352e-17
9070.35550 1.08380e-17
9072.36540 1.07424e-17
9074.36520 1.11771e-17
9076.37510 1.11784e-17
9078.37490 1.15462e-17
9080.38480 1.12395e-17
9082.38460 1.14678e-17
9084.39450 1.13587e-17
9086.39430 1.10075e-17
9088.39410 1.14579e-17
9090.40400 1.10275e-17
9092.40380 1.13268e-17
9094.41370 1.10082e-17
9096.41350 1.03684e-17
9098.42340 1.18483e-17
9100.42320 1.12639e-17
9102.43310 1.17598e-17
9104.43290 1.12538e-17
9106.44280 1.12296e-17
9108.44260 1.10850e-17
9110.45250 1.17014e-17
9112.45230 1.18483e-17
9114.46220 1.15784e-17
9116.46200 1.07212e-17
9118.46180 1.08407e-17
9120.47170 1.09283e-17
9122.47150 1.14551e-17
9124.48140 1.20436e-17
9126.48120 1.13185e-17
9128.49110 1.10003e-17
9130.49090 1.17969e-17
9132.50080 1.19474e-17
9134.50060 1.18976e-17
9136.51050 1.17273e-17
9138.51030 1.22915e-17
9140.52020 1.21298e-17
9142.52000 1.22701e-17
9144.52990 1.20001e-17
9146.52970 1.19232e-17
9148.53960 1.28936e-17
9150.53940 1.25329e-17
9152.53920 1.17549e-17
9154.54910 1.18985e-17
9156.54890 1.21036e-17
9158.55880 1.40340e-17
9160.55860 1.77064e-17
9162.56850 2.07051e-17
9164.56830 1.98353e-17
9166.57820 1.60270e-17
9168.57800 1.25197e-17
9170.58790 1.20214e-17
9172.58770 1.17845e-17
9174.59760 1.22202e-17
9176.59740 1.04345e-17
9178.60730 1.06693e-17
9180.60710 1.15003e-17
9182.61700 1.11760e-17
9184.61680 1.09804e-17
9186.61660 1.09244e-17
9188.62650 1.15832e-17
9190.62630 1.14360e-17
9192.63620 1.16490e-17
9194.63600 1.06625e-17
9196.64590 1.11268e-17
9198.64570 1.15472e-17
9200.65560 1.09181e-17
9202.65540 1.11056e-17
9204.66530 1.06788e-17
9206.66510 1.10306e-17
9208.67500 9.99863e-18
9210.67480 1.06992e-17
9212.68470 1.10064e-17
9214.68450 9.90648e-18
9216.69440 1.02200e-17
9218.69420 1.09289e-17
9220.69400 1.07163e-17
9222.70390 1.00286e-17
9224.70370 9.85305e-18
9226.71360 1.00666e-17
9228.71340 1.01946e-17
9230.72330 1.06582e-17
9232.72310 9.81293e-18
9234.73300 9.51650e-18
9236.73280 1.05750e-17
9238.74270 1.07257e-17
9240.74250 1.02802e-17
9242.75240 1.04664e-17
9244.75220 9.98941e-18
9246.76210 1.00408e-17
9248.76190 1.00764e-17
9250.76170 1.00488e-17
9252.77160 1.01128e-17
9254.77140 1.05210e-17
9256.78130 9.69453e-18
9258.78110 9.29050e-18
9260.79100 9.88632e-18
9262.79080 9.37833e-18
9264.80070 9.70650e-18
9266.80050 9.69799e-18
9268.81040 8.87021e-18
9270.81020 9.92238e-18
9272.82010 9.26308e-18
9274.81990 1.04348e-17
9276.82980 9.21598e-18
9278.82960 8.32865e-18
9280.83950 8.58279e-18
9282.83930 8.72419e-18
9284.84920 9.46715e-18
9286.84900 8.66368e-18
9288.84880 7.95459e-18
9290.85870 8.75690e-18
9292.85850 9.55048e-18
9294.86840 9.25181e-18
9296.86820 8.96779e-18
9298.87810 9.29810e-18
9300.87790 9.40793e-18
9302.88780 9.09839e-18
9304.88760 8.37082e-18
9306.89750 8.08985e-18
9308.89730 9.92496e-18
9310.89710 8.88499e-18
9312.90700 8.98337e-18
9314.91690 7.81493e-18
9316.91670 7.91061e-18
9318.91650 8.06270e-18
9320.92640 7.15259e-18
9322.92620 8.34267e-18
9324.93610 9.02424e-18
9326.93590 8.55307e-18
9328.94580 8.59016e-18
9330.94560 7.89366e-18
9332.95550 7.78843e-18
9334.95530 8.29460e-18
9336.96520 8.63416e-18
9338.96500 8.24430e-18
9340.97490 7.66168e-18
9342.97470 7.18689e-18
9344.98460 7.68553e-18
9346.98440 7.97213e-18
9348.98420 8.51067e-18
9350.99410 8.47207e-18
9352.99390 7.42196e-18
9355.00380 7.75616e-18
9357.00360 7.95162e-18
9359.01350 8.41373e-18
9361.01330 8.03516e-18
9363.02320 7.80886e-18
9365.02300 6.77022e-18
9367.03290 6.51410e-18
9369.03270 7.82054e-18
9371.04260 8.02157e-18
9373.04240 7.55074e-18
9375.05230 6.58604e-18
9377.05210 7.56916e-18
9379.06200 7.28093e-18
9381.06180 7.21365e-18
9383.07170 7.16615e-18
9385.07150 7.26681e-18
9387.07130 7.50226e-18
9389.08120 7.33499e-18
9391.08100 7.18829e-18
9393.09090 8.03383e-18
9395.09070 7.33324e-18
9397.10060 6.64233e-18
9399.10040 6.84997e-18
9401.11030 6.95599e-18
9403.11010 7.39170e-18
9405.12000 7.66048e-18
9407.11980 7.30278e-18
9409.12970 8.16951e-18
9411.12950 7.69916e-18
9413.13940 7.71555e-18
9415.13920 7.68120e-18
9417.13900 8.46185e-18
9419.14890 6.04333e-18
9421.14870 8.22927e-18
9423.15860 9.09559e-18
9425.15840 8.19203e-18
9427.16830 7.04361e-18
9429.16810 7.90275e-18
9431.17800 7.78196e-18
9433.17780 7.66112e-18
9435.18770 7.54029e-18
9437.18750 7.41952e-18
9439.19740 7.29871e-18
9441.19720 7.49988e-18
9443.20710 7.79867e-18
