# wavelength flux
3449.99840 5.14062e-18
3453.02840 3.67921e-18
3456.06850 6.48721e-18
3459.09850 6.15342e-18
3462.12850 5.53227e-18
3465.15850 6.36453e-18
3468.19860 6.27446e-18
3471.22860 5.00529e-18
3474.25860 6.47809e-18
3477.28860 6.45758e-18
3480.32870 6.81686e-18
3483.35870 6.02762e-18
3486.38870 9.13265e-18
3489.41870 8.83610e-18
3492.45880 8.81254e-18
3495.48880 7.11923e-18
3498.51880 6.41209e-18
3501.54880 7.32100e-18
3504.57880 6.88880e-18
3507.61890 7.37678e-18
3510.64890 7.98273e-18
3513.67890 7.98367e-18
3516.70890 8.21165e-18
3519.74900 6.41424e-18
3522.77900 8.00246e-18
3525.80900 8.64807e-18
3528.83900 6.54803e-18
3531.87910 5.99534e-18
3534.90910 7.58421e-18
3537.93910 6.40370e-18
3540.96910 5.17622e-18
3544.00920 6.60363e-18
3547.03920 7.40336e-18
3550.06920 8.33749e-18
3553.09920 6.81566e-18
3556.13930 5.94543e-18
3559.16930 5.80831e-18
3562.19930 9.12063e-18
3565.22930 8.85209e-18
3568.25930 8.06916e-18
3571.29940 8.41690e-18
3574.32940 6.94611e-18
3577.35940 8.55112e-18
3580.38940 7.29612e-18
3583.42950 7.92799e-18
3586.45950 8.06359e-18
3589.48950 6.96179e-18
3592.51950 7.84526e-18
3595.55960 7.93751e-18
3598.58960 7.22789e-18
3601.61960 5.84031e-18
3604.64960 4.79442e-18
3607.68970 7.41364e-18
3610.71970 8.08111e-18
3613.74970 7.95418e-18
3616.77970 7.42368e-18
3619.81980 7.54739e-18
3622.84980 7.88000e-18
3625.87980 5.96883e-18
3628.90980 8.01641e-18
3631.94990 8.20602e-18
3634.97990 7.11125e-18
3638.00990 6.47356e-18
3641.03990 7.60416e-18
3644.06990 6.63708e-18
3647.11000 6.09470e-18
3650.14000 8.17844e-18
3653.17000 9.29777e-18
3656.20000 8.97288e-18
3659.24010 6.42126e-18
3662.27010 7.42993e-18
3665.30010 8.67491e-18
3668.33010 8.54401e-18
3671.37020 6.56053e-18
3674.40020 6.79206e-18
3677.43020 6.39250e-18
3680.46020 7.33648e-18
3683.50030 6.64025e-18
3686.53030 6.08231e-18
3689.56030 7.82385e-18
3692.59030 8.00565e-18
3695.63040 7.06773e-18
3698.66040 6.99742e-18
3701.69040 7.25612e-18
3704.72040 7.25732e-18
3707.75040 6.67823e-18
3710.79050 7.41443e-18
3713.82050 5.86971e-18
3716.85050 7.73084e-18
3719.88050 5.42513e-18
3722.92060 5.25464e-18
3725.95060 6.39358e-18
3728.98060 6.58375e-18
3732.01060 7.14950e-18
3735.05070 5.33243e-18
3738.08070 6.03701e-18
3741.11070 6.47472e-18
3744.14070 5.75719e-18
3747.18080 5.80693e-18
3750.21080 5.91298e-18
3753.24080 6.01898e-18
3756.27080 6.12494e-18
3759.31090 6.23084e-18
3762.34090 6.33669e-18
3765.37090 6.44248e-18
3768.40090 6.54821e-18
3771.44100 6.65390e-18
3774.47100 6.75954e-18
3777.50100 6.86513e-18
3780.53100 6.97065e-18
3783.56100 7.07614e-18
3786.60110 7.18158e-18
3789.63110 7.07411e-18
3792.66110 5.95656e-18
3795.69110 8.07251e-18
3798.73120 7.28375e-18
3801.76120 6.34040e-18
3804.79120 5.41287e-18
3807.82120 5.35217e-18
3810.86130 7.20772e-18
3813.89130 6.09035e-18
3816.92130 7.41745e-18
3819.95130 6.83496e-18
3822.99140 7.29898e-18
3826.02140 6.81703e-18
3829.05140 6.45392e-18
3832.08140 6.95462e-18
3835.12150 7.81153e-18
3838.15150 8.23164e-18
3841.18150 7.27048e-18
3844.21150 7.57556e-18
3847.25160 7.53972e-18
3850.28160 7.68201e-18
3853.31160 6.18867e-18
3856.34160 8.12905e-18
3859.37160 7.67977e-18
3862.41170 8.24384e-18
3865.44170 7.30169e-18
3868.47170 8.26240e-18
3871.50170 7.65072e-18
3874.54180 8.98101e-18
3877.57180 8.01804e-18
3880.60180 7.64505e-18
3883.63180 7.38584e-18
3886.67190 7.51778e-18
3889.70190 7.36131e-18
3892.73190 8.04639e-18
3895.76190 7.42778e-18
3898.80200 8.18139e-18
3901.83200 9.02659e-18
3904.86200 8.80236e-18
3907.89200 8.42793e-18
3910.93210 7.07542e-18
3913.96210 6.32824e-18
3916.99210 7.17909e-18
3920.02210 9.02372e-18
3923.05210 9.33196e-18
3926.09220 1.17938e-17
3929.12220 1.22687e-17
3932.15220 8.93884e-18
3935.18220 6.46688e-18
3938.22230 6.67859e-18
3941.25230 7.76199e-18
3944.28230 7.37500e-18
3947.31230 7.59722e-18
3950.35240 8.39567e-18
3953.38240 7.27957e-18
3956.41240 7.97577e-18
3959.44240 8.14251e-18
3962.48250 7.60820e-18
3965.51250 7.08432e-18
3968.54250 6.75895e-18
3971.57250 7.41387e-18
3974.61260 8.50945e-18
3977.64260 7.75376e-18
3980.67260 7.54239e-18
3983.70260 8.62405e-18
3986.73260 6.98780e-18
3989.77270 7.79389e-18
3992.80270 6.76714e-18
3995.83270 7.32261e-18
3998.86270 8.12902e-18
4001.90280 8.07559e-18
4004.93280 8.85372e-18
4007.96280 1.07336e-17
4010.99280 1.10220e-17
4014.03290 1.03138e-17
4017.06290 8.16560e-18
4020.09290 7.50605e-18
4023.12290 7.55380e-18
4026.16300 6.28508e-18
4029.19300 6.76537e-18
4032.22300 6.11691e-18
4035.25300 6.86339e-18
4038.29310 8.51308e-18
4041.32310 6.69331e-18
4044.35310 6.33313e-18
4047.38310 8.30200e-18
4050.42320 7.10188e-18
4053.45320 7.30442e-18
4056.48320 6.88978e-18
4059.51320 8.07602e-18
4062.54320 8.69973e-18
4065.58330 8.14276e-18
4068.61330 7.71998e-18
4071.64330 7.59098e-18
4074.67330 7.11486e-18
4077.71340 7.18307e-18
4080.74340 6.97814e-18
4083.77340 7.18086e-18
4086.80340 7.06794e-18
4089.84350 7.75936e-18
4092.87350 7.00466e-18
4095.90350 6.51512e-18
4098.93350 6.96122e-18
4101.97360 7.02048e-18
4105.00360 6.83687e-18
4108.03360 7.71052e-18
4111.06360 6.62691e-18
4114.10370 6.75465e-18
4117.13370 6.41543e-18
4120.16370 7.45236e-18
4123.19370 7.50319e-18
4126.22370 5.58985e-18
4129.26380 7.58714e-18
4132.29380 6.97579e-18
4135.32380 7.32533e-18
4138.35380 8.78496e-18
4141.39390 1.21729e-17
4144.42390 1.41773e-17
4147.45390 1.06245e-17
4150.48390 8.53435e-18
4153.52400 7.30109e-18
4156.55400 7.37815e-18
4159.58400 7.03457e-18
4162.61400 6.87831e-18
4165.65410 5.92431e-18
4168.68410 6.20990e-18
4171.71410 7.18167e-18
4174.74410 6.69994e-18
4177.78420 6.84374e-18
4180.81420 7.07819e-18
4183.84420 5.73173e-18
4186.87420 6.70324e-18
4189.91430 6.82673e-18
4192.94430 7.42715e-18
4195.97430 7.06405e-18
4199.00430 7.12216e-18
4202.03430 5.98385e-18
4205.07440 5.96205e-18
4208.10440 6.89148e-18
4211.13440 6.45979e-18
4214.16440 5.51298e-18
4217.20450 7.04908e-18
4220.23450 6.33810e-18
4223.26450 6.26459e-18
4226.29450 6.02566e-18
4229.33460 6.46514e-18
4232.36460 6.87070e-18
4235.39460 7.07704e-18
4238.42460 6.31048e-18
4241.46470 6.72288e-18
4244.49470 6.51499e-18
4247.52470 7.02207e-18
4250.55470 6.75658e-18
4253.59480 6.44772e-18
4256.62480 6.82916e-18
4259.65480 7.23726e-18
4262.68480 7.19506e-18
4265.71480 6.20475e-18
4268.75490 6.51624e-18
4271.78490 6.48978e-18
4274.81490 5.60720e-18
4277.84490 6.54746e-18
4280.88500 6.73617e-18
4283.91500 7.66660e-18
4286.94500 6.95591e-18
4289.97500 6.69192e-18
4293.01510 7.04135e-18
4296.04510 7.29544e-18
4299.07510 7.22417e-18
4302.10510 6.90813e-18
4305.14520 7.02682e-18
4308.17520 7.25204e-18
4311.20520 7.41374e-18
4314.23520 7.91799e-18
4317.27530 6.97591e-18
4320.30530 7.25642e-18
4323.33530 7.12783e-18
4326.36530 6.92737e-18
4329.40540 6.78314e-18
4332.43540 6.89975e-18
4335.46540 7.37505e-18
4338.49540 7.05622e-18
4341.52540 6.69817e-18
4344.56550 7.13474e-18
4347.59550 7.54646e-18
4350.62550 7.20189e-18
4353.65550 6.52734e-18
4356.69560 7.03350e-18
4359.72560 6.60239e-18
4362.75560 6.87718e-18
4365.78560 6.93847e-18
4368.82570 7.24315e-18
4371.85570 7.46247e-18
4374.88570 7.57188e-18
4377.91570 7.59052e-18
4380.95580 7.60916e-18
4383.98580 7.62778e-18
4387.01580 7.64639e-18
4390.04580 7.66499e-18
4393.08590 7.68357e-18
4396.11590 7.70215e-18
4399.14590 7.72071e-18
4402.17590 7.73926e-18
4405.21600 7.75780e-18
4408.24600 7.77632e-18
4411.27600 7.79483e-18
4414.30600 7.81333e-18
4417.33600 7.83182e-18
4420.37610 7.85030e-18
4423.40610 7.86876e-18
4426.43610 7.88721e-18
4429.46610 7.90565e-18
4432.50620 7.92408e-18
4435.53620 7.94250e-18
4438.56620 7.96089e-18
4441.59620 7.55609e-18
4444.63630 7.67287e-18
4447.66630 7.50209e-18
4450.69630 7.97342e-18
4453.72630 8.35416e-18
4456.76640 8.48177e-18
4459.79640 7.65676e-18
4462.82640 7.70616e-18
4465.85640 8.37914e-18
4468.89650 7.24538e-18
4471.92650 7.59050e-18
4474.95650 7.43949e-18
4477.98650 7.31078e-18
4481.01650 7.19740e-18
4484.05660 8.25322e-18
4487.08660 7.70481e-18
4490.11660 8.41722e-18
4493.14660 8.67974e-18
4496.18670 7.93318e-18
4499.21670 7.84324e-18
4502.24670 8.28900e-18
4505.27670 8.51593e-18
4508.31680 8.94425e-18
4511.34680 9.77048e-18
4514.37680 8.63532e-18
4517.40680 9.20489e-18
4520.44690 8.83653e-18
4523.47690 8.18390e-18
4526.50690 8.84417e-18
4529.53690 8.67259e-18
4532.57700 8.52165e-18
4535.60700 8.35576e-18
4538.63700 8.70979e-18
4541.66700 8.74943e-18
4544.70710 9.30862e-18
4547.73710 9.06615e-18
4550.76710 8.68888e-18
4553.79710 9.05287e-18
4556.82710 8.01544e-18
4559.86720 8.30851e-18
4562.89720 6.95310e-18
4565.92720 8.64282e-18
4568.95720 8.50238e-18
4571.99730 8.37142e-18
4575.02730 7.74308e-18
4578.05730 8.15461e-18
4581.08730 8.71254e-18
4584.12740 9.36491e-18
4587.15740 8.07964e-18
4590.18740 7.71130e-18
4593.21740 7.92565e-18
4596.25750 7.88742e-18
4599.28750 8.24334e-18
4602.31750 7.61299e-18
4605.34750 8.56057e-18
4608.38760 8.01213e-18
4611.41760 8.11364e-18
4614.44760 7.38777e-18
4617.47760 8.08819e-18
4620.51770 7.41528e-18
4623.54770 7.35333e-18
4626.57770 7.88744e-18
4629.60770 7.28725e-18
4632.63770 7.79039e-18
4635.67780 7.40772e-18
4638.70780 7.15163e-18
4641.73780 7.56781e-18
4644.76780 7.58616e-18
4647.80790 7.26994e-18
4650.83790 7.70315e-18
4653.86790 6.74416e-18
4656.89790 7.48459e-18
4659.93800 7.10365e-18
4662.96800 7.11663e-18
4665.99800 7.73613e-18
4669.02800 7.41768e-18
4672.06810 7.12803e-18
4675.09810 7.03759e-18
4678.12810 7.43320e-18
4681.15810 6.90378e-18
4684.19820 7.40655e-18
4687.22820 7.97733e-18
4690.25820 7.20685e-18
4693.28820 7.12833e-18
4696.31820 6.94116e-18
4699.35830 7.06683e-18
4702.38830 7.04865e-18
4705.41830 7.69909e-18
4708.44830 7.72997e-18
4711.48840 6.96352e-18
4714.51840 7.28847e-18
4717.54840 7.95302e-18
4720.57840 7.96047e-18
4723.61850 7.51369e-18
4726.64850 7.81555e-18
4729.67850 8.04281e-18
4732.70850 7.61809e-18
4735.74860 7.76394e-18
4738.77860 6.98914e-18
4741.80860 6.66345e-18
4744.83860 7.57701e-18
4747.87870 7.78007e-18
4750.90870 7.74897e-18
4753.93870 7.25524e-18
4756.96870 7.53421e-18
4759.99870 7.23537e-18
4763.03880 7.07767e-18
4766.06880 6.99995e-18
4769.09880 7.44634e-18
4772.12880 7.50113e-18
4775.16890 7.85215e-18
4778.19890 7.69510e-18
4781.22890 6.88789e-18
4784.25890 7.48806e-18
4787.29900 8.08129e-18
4790.32900 7.54131e-18
4793.35900 6.64644e-18
4796.38900 7.79184e-18
4799.42910 7.35975e-18
4802.45910 7.50894e-18
4805.48910 7.09093e-18
4808.51910 6.98283e-18
4811.55920 7.15765e-18
4814.58920 6.83625e-18
4817.61920 5.90643e-18
4820.64920 7.13797e-18
4823.68930 7.00429e-18
4826.71930 7.43409e-18
4829.74930 7.17587e-18
4832.77930 7.26701e-18
4835.80930 6.07634e-18
4838.84940 6.85603e-18
4841.87940 6.88564e-18
4844.90940 6.76160e-18
4847.93940 7.41701e-18
4850.97950 7.65482e-18
4854.00950 7.72433e-18
4857.03950 7.54793e-18
4860.06950 7.27150e-18
4863.10960 6.44959e-18
4866.13960 7.21842e-18
4869.16960 7.90136e-18
4872.19960 7.15385e-18
4875.23970 7.36440e-18
4878.26970 7.17808e-18
4881.29970 7.00731e-18
4884.32970 7.35981e-18
4887.36980 7.83536e-18
4890.39980 7.49593e-18
4893.42980 7.48886e-18
4896.45980 7.48180e-18
4899.48980 7.47474e-18
4902.52990 7.46769e-18
4905.55990 7.46064e-18
4908.58990 7.45359e-18
4911.61990 7.44655e-18
4914.66000 7.43951e-18
4917.69000 7.43248e-18
4920.72000 7.42545e-18
4923.75000 7.41842e-18
4926.79010 7.41140e-18
4929.82010 7.40438e-18
4932.85010 7.03743e-18
4935.88010 7.16108e-18
4938.92020 6.55912e-18
4941.95020 7.06187e-18
4944.98020 7.22499e-18
4948.01020 7.18279e-18
4951.05030 7.71083e-18
4954.08030 6.95504e-18
4957.11030 6.88884e-18
4960.14030 7.40490e-18
4963.18040 7.35177e-18
4966.21040 7.54935e-18
4969.24040 7.32045e-18
4972.27040 7.00554e-18
4975.30040 7.55753e-18
4978.34050 7.33914e-18
4981.37050 6.97183e-18
4984.40050 7.16810e-18
4987.43050 7.18176e-18
4990.47060 7.16038e-18
4993.50060 7.13901e-18
4996.53060 7.11766e-18
4999.56060 7.09631e-18
5002.60070 7.07498e-18
5005.63070 7.05366e-18
5008.66070 7.03235e-18
5011.69070 7.01105e-18
5014.73080 6.98977e-18
5017.76080 6.96850e-18
5020.79080 6.94724e-18
5023.82080 6.92599e-18
5026.85080 6.90476e-18
5029.89090 7.65068e-18
5032.92090 7.65104e-18
5035.95090 8.07602e-18
5038.98090 8.10334e-18
5042.02100 8.13066e-18
5045.05100 8.15796e-18
5048.08100 8.18524e-18
5051.11100 8.21252e-18
5054.15110 8.23978e-18
5057.18110 8.26703e-18
5060.21110 8.29427e-18
5063.24110 8.32149e-18
5066.28120 8.34870e-18
5069.31120 8.37590e-18
5072.34120 8.40308e-18
5075.37120 8.43026e-18
5078.41130 8.83298e-18
5081.44130 8.72646e-18
5084.47130 8.67524e-18
5087.50130 8.12395e-18
5090.54140 8.59028e-18
5093.57140 8.41093e-18
5096.60140 9.03794e-18
5099.63140 8.68568e-18
5102.67150 8.48857e-18
5105.70150 8.75120e-18
5108.73150 8.87956e-18
5111.76150 9.31862e-18
5114.79150 8.62211e-18
5117.83160 8.65648e-18
5120.86160 8.12786e-18
5123.89160 8.57445e-18
5126.92160 8.94375e-18
5129.96170 9.12625e-18
5132.99170 9.44872e-18
5136.02170 9.45641e-18
5139.05170 9.23003e-18
5142.09180 8.87311e-18
5145.12180 9.34256e-18
5148.15180 9.87751e-18
5151.18180 1.02514e-17
5154.22190 9.41889e-18
5157.25190 1.02341e-17
5160.28190 9.37613e-18
5163.31190 9.73029e-18
5166.35200 9.40943e-18
5169.38200 9.64962e-18
5172.41200 9.30152e-18
5175.44200 9.81064e-18
5178.48210 1.00300e-17
5181.51210 1.00535e-17
5184.54210 1.01481e-17
5187.57210 9.61450e-18
5190.60210 1.02995e-17
5193.64220 9.64087e-18
5196.67220 9.74165e-18
5199.70220 1.00044e-17
5202.73220 9.79228e-18
5205.77230 1.02303e-17
5208.80230 1.00906e-17
5211.83230 1.11544e-17
5214.86230 1.04602e-17
5217.90240 1.02437e-17
5220.93240 9.51617e-18
5223.96240 1.11392e-17
5226.99240 1.03582e-17
5230.03250 1.08645e-17
5233.06250 1.04525e-17
5236.09250 1.10007e-17
5239.12250 1.13859e-17
5242.16260 1.20066e-17
5245.19260 1.18743e-17
5248.22260 1.20335e-17
5251.25260 1.14953e-17
5254.29270 1.20023e-17
5257.32270 1.21863e-17
5260.35270 1.17037e-17
5263.38270 1.18186e-17
5266.41270 1.17050e-17
5269.45280 1.14950e-17
5272.48280 1.23697e-17
5275.51280 1.16745e-17
5278.54280 1.22344e-17
5281.58290 1.28264e-17
5284.61290 1.19620e-17
5287.64290 1.14489e-17
5290.67290 1.23703e-17
5293.71300 1.18141e-17
5296.74300 1.18197e-17
5299.77300 1.35483e-17
5302.80300 1.35152e-17
5305.84310 1.27020e-17
5308.87310 1.24944e-17
5311.90310 1.29569e-17
5314.93310 1.26311e-17
5317.96310 1.26520e-17
5321.00320 1.29772e-17
5324.03320 1.35246e-17
5327.06320 1.33760e-17
5330.09320 1.31143e-17
5333.13330 1.30820e-17
5336.16330 1.31391e-17
5339.19330 1.39313e-17
5342.22330 1.44684e-17
5345.26340 1.34037e-17
5348.29340 1.33876e-17
5351.32340 1.39776e-17
5354.35340 1.32255e-17
5357.39350 1.38098e-17
5360.42350 1.41727e-17
5363.45350 1.47411e-17
5366.48350 1.36493e-17
5369.52360 1.38023e-17
5372.55360 1.43034e-17
5375.58360 1.43776e-17
5378.61360 1.47259e-17
5381.65370 1.43151e-17
5384.68370 1.43818e-17
5387.71370 1.46365e-17
5390.74370 1.51212e-17
5393.77370 1.43928e-17
5396.81380 1.43268e-17
5399.84380 1.53241e-17
5402.87380 1.54584e-17
5405.90380 1.46289e-17
5408.94390 1.45131e-17
5411.97390 1.51972e-17
5415.00390 1.50799e-17
5418.03390 1.50084e-17
5421.07400 1.43177e-17
5424.10400 1.49588e-17
5427.13400 1.53848e-17
5430.16400 1.54536e-17
5433.20410 1.49374e-17
5436.23410 1.48079e-17
5439.26410 1.50279e-17
5442.29410 1.53787e-17
5445.33420 1.56210e-17
5448.36420 1.51741e-17
5451.39420 1.59580e-17
5454.42420 1.55680e-17
5457.46430 1.53377e-17
5460.49430 1.47727e-17
5463.52430 1.55720e-17
5466.55430 1.58860e-17
5469.58430 1.57231e-17
5472.62440 1.54293e-17
5475.65440 1.62083e-17
5478.68440 1.60020e-17
5481.71440 1.57846e-17
5484.75450 1.61291e-17
5487.78450 1.61263e-17
5490.81450 1.57831e-17
5493.84450 1.60069e-17
5496.88460 1.60217e-17
5499.91460 1.59185e-17
5502.94460 1.57788e-17
5505.97460 1.55723e-17
5509.01470 1.62538e-17
5512.04470 1.57108e-17
5515.07470 1.52767e-17
5518.10470 1.59548e-17
5521.14480 1.64221e-17
5524.17480 1.51386e-17
5527.20480 1.64293e-17
5530.23480 1.57613e-17
5533.26480 1.59002e-17
5536.30490 1.61222e-17
5539.33490 1.53916e-17
5542.36490 1.50212e-17
5545.39490 1.52118e-17
5548.43500 1.59668e-17
5551.46500 1.56847e-17
5554.49500 1.51311e-17
5557.52500 1.52800e-17
5560.56510 1.54547e-17
5563.59510 1.53849e-17
5566.62510 1.43899e-17
5569.65510 1.47222e-17
5572.69520 1.65517e-17
5575.72520 1.51455e-17
5578.75520 1.34806e-17
5581.78520 1.58321e-17
5584.82530 1.53110e-17
5587.85530 1.44895e-17
5590.88530 1.46091e-17
5593.91530 1.41788e-17
5596.94530 1.41192e-17
5599.98540 1.46352e-17
5603.01540 1.45157e-17
5606.04540 1.46419e-17
5609.07540 1.46449e-17
5612.11550 1.48702e-17
5615.14550 1.40240e-17
5618.17550 1.41939e-17
5621.20550 1.43940e-17
5624.24560 1.46050e-17
5627.27560 1.43498e-17
5630.30560 1.38017e-17
5633.33560 1.45671e-17
5636.37570 1.48088e-17
5639.40570 1.46576e-17
5642.43570 1.46364e-17
5645.46570 1.45915e-17
5648.50580 1.37183e-17
5651.53580 1.41529e-17
5654.56580 1.37576e-17
5657.59580 1.35988e-17
5660.62580 1.41419e-17
5663.66590 1.44187e-17
5666.69590 1.42392e-17
5669.72590 1.43035e-17
5672.75590 1.41678e-17
5675.79600 1.41215e-17
5678.82600 1.42282e-17
5681.85600 1.40879e-17
5684.88600 1.46089e-17
5687.92610 1.49644e-17
5690.95610 1.39836e-17
5693.98610 1.37104e-17
5697.01610 1.44265e-17
5700.05620 1.41504e-17
5703.08620 1.43312e-17
5706.11620 1.41498e-17
5709.14620 1.50091e-17
5712.18630 1.48022e-17
5715.21630 1.51395e-17
5718.24630 1.45447e-17
5721.27630 1.47523e-17
5724.31640 1.53089e-17
5727.34640 1.50784e-17
5730.37640 1.56412e-17
5733.40640 1.53284e-17
5736.44650 1.52658e-17
5739.47650 1.53782e-17
5742.50650 1.52494e-17
5745.53650 1.49863e-17
5748.56650 1.52434e-17
5751.60660 1.51741e-17
5754.63660 1.58012e-17
5757.66660 1.52701e-17
5760.69660 1.53514e-17
5763.73670 1.52740e-17
5766.76670 1.52628e-17
5769.79670 1.49348e-17
5772.82670 1.49484e-17
5775.86680 1.56675e-17
5778.89680 1.50091e-17
5781.92680 1.55015e-17
5784.95680 1.55978e-17
5787.99690 1.60545e-17
5791.02690 1.59999e-17
5794.05690 1.52504e-17
5797.08690 1.59248e-17
5800.12700 1.58009e-17
5803.15700 1.58711e-17
5806.18700 1.53978e-17
5809.21700 1.55181e-17
5812.25710 1.57081e-17
5815.28710 1.56475e-17
5818.31710 1.56436e-17
5821.34710 1.64472e-17
5824.37710 1.53577e-17
5827.41720 1.54080e-17
5830.44720 1.53482e-17
5833.47720 1.58538e-17
5836.50720 1.61674e-17
5839.54730 1.47954e-17
5842.57730 1.48991e-17
5845.60730 1.50833e-17
5848.63730 1.62553e-17
5851.67740 1.57924e-17
5854.70740 1.55976e-17
5857.73740 1.62483e-17
5860.76740 1.55100e-17
5863.80750 1.45491e-17
5866.83750 1.61500e-17
5869.86750 1.63410e-17
5872.89750 1.49000e-17
5875.92750 1.61369e-17
5878.96760 1.66667e-17
5881.99760 1.57531e-17
5885.02760 1.60653e-17
5888.06770 1.52422e-17
5891.09770 1.46392e-17
5894.12770 1.43227e-17
5897.15770 1.51994e-17
5900.18770 1.60205e-17
5903.22780 1.51918e-17
5906.25780 1.52212e-17
5909.28780 1.52507e-17
5912.31780 1.52801e-17
5915.35790 1.53095e-17
5918.38790 1.53390e-17
5921.41790 1.53684e-17
5924.44790 1.53978e-17
5927.48800 1.54272e-17
5930.51800 1.54566e-17
5933.54800 1.54861e-17
5936.57800 1.55155e-17
5939.61810 1.55449e-17
5942.64810 1.55743e-17
5945.67810 1.56036e-17
5948.70810 1.56330e-17
5951.73810 1.56624e-17
5954.77820 1.56918e-17
5957.80820 1.57212e-17
5960.83820 1.57505e-17
5963.86820 1.57799e-17
5966.90830 1.58093e-17
5969.93830 1.49681e-17
5972.96830 1.49408e-17
5975.99830 1.55695e-17
5979.03840 1.48280e-17
5982.06840 1.56903e-17
5985.09840 1.49848e-17
5988.12840 1.45424e-17
5991.16850 1.51624e-17
5994.19850 1.50030e-17
5997.22850 1.46463e-17
6000.25850 1.41458e-17
6003.29860 1.41885e-17
6006.32860 1.42320e-17
6009.35860 1.40358e-17
6012.38860 1.40634e-17
6015.42870 1.48100e-17
6018.45870 1.49732e-17
6021.48870 1.49746e-17
6024.51870 1.48174e-17
6027.54870 1.40105e-17
6030.58880 1.38507e-17
6033.61880 1.38025e-17
6036.64880 1.38272e-17
6039.67880 1.40993e-17
6042.71890 1.45300e-17
6045.74890 1.42796e-17
6048.77890 1.36516e-17
6051.80890 1.37145e-17
6054.84900 1.38271e-17
6057.87900 1.37067e-17
6060.90900 1.34976e-17
6063.93900 1.39451e-17
6066.97910 1.31452e-17
6070.00910 1.35110e-17
6073.03910 1.29530e-17
6076.06910 1.28577e-17
6079.10920 1.26865e-17
6082.13920 1.26661e-17
6085.16920 1.26935e-17
6088.19920 1.22729e-17
6091.22920 1.23915e-17
6094.26930 1.31829e-17
6097.29930 1.27594e-17
6100.32930 1.29446e-17
6103.35930 1.25574e-17
6106.39940 1.32955e-17
6109.42940 1.30468e-17
6112.45940 1.24424e-17
6115.48940 1.19104e-17
6118.52950 1.23815e-17
6121.55950 1.25552e-17
6124.58950 1.27587e-17
6127.61950 1.34028e-17
6130.65960 1.32905e-17
6133.68960 1.27655e-17
6136.71960 1.22886e-17
6139.74960 1.26722e-17
6142.78970 1.27507e-17
6145.81970 1.33076e-17
6148.84970 1.28012e-17
6151.87970 1.27769e-17
6154.91980 1.29493e-17
6157.94980 1.25812e-17
6160.97980 1.27604e-17
6164.00980 1.33052e-17
6167.03980 1.28871e-17
6170.07990 1.33433e-17
6173.10990 1.27007e-17
6176.13990 1.26329e-17
6179.16990 1.29200e-17
6182.21000 1.24469e-17
6185.24000 1.29202e-17
6188.27000 1.26066e-17
6191.30000 1.26837e-17
6194.34010 1.22400e-17
6197.37010 1.28815e-17
6200.40010 1.26320e-17
6203.43010 1.27772e-17
6206.47020 1.25957e-17
6209.50020 1.32649e-17
6212.53020 1.33749e-17
6215.56020 1.28558e-17
6218.60030 1.28221e-17
6221.63030 1.30614e-17
6224.66030 1.29542e-17
6227.69030 1.21568e-17
6230.72030 1.27724e-17
6233.76040 1.30452e-17
6236.79040 1.27426e-17
6239.82040 1.29269e-17
6242.85040 1.37571e-17
6245.89050 1.36977e-17
6248.92050 1.28645e-17
6251.95050 1.25329e-17
6254.98050 1.33186e-17
6258.02060 1.36451e-17
6261.05060 1.37357e-17
6264.08060 1.30782e-17
6267.11060 1.33165e-17
6270.15070 1.38703e-17
6273.18070 1.36376e-17
6276.21070 1.34923e-17
6279.24070 1.38330e-17
6282.28080 1.39340e-17
6285.31080 1.36837e-17
6288.34080 1.37414e-17
6291.37080 1.39816e-17
6294.40080 1.38571e-17
6297.44090 1.34267e-17
6300.47090 1.41915e-17
6303.50090 1.50805e-17
6306.53090 1.50379e-17
6309.57100 1.49105e-17
6312.60100 1.47020e-17
6315.63100 1.45598e-17
6318.66100 1.47508e-17
6321.70110 1.50882e-17
6324.73110 1.47053e-17
6327.76110 1.49712e-17
6330.79110 1.52673e-17
6333.83120 1.49916e-17
6336.86120 1.48321e-17
6339.89120 1.48464e-17
6342.92120 1.42758e-17
6345.96130 1.44691e-17
6348.99130 1.38481e-17
6352.02130 1.50122e-17
6355.05130 1.54069e-17
6358.09140 1.48786e-17
6361.12140 1.52423e-17
6364.15140 1.62972e-17
6367.18140 1.62190e-17
6370.22150 1.58193e-17
6373.25150 1.63833e-17
6376.28150 1.56680e-17
6379.31150 1.59615e-17
6382.34150 1.61830e-17
6385.38160 1.52806e-17
6388.41160 1.62582e-17
6391.44160 1.64966e-17
6394.47160 1.62053e-17
6397.51170 1.58827e-17
6400.54170 1.64887e-17
6403.57170 1.66498e-17
6406.60170 1.63968e-17
6409.64180 1.67566e-17
6412.67180 1.64478e-17
6415.70180 1.64476e-17
6418.73180 1.72010e-17
6421.77190 1.70416e-17
6424.80190 1.66725e-17
6427.83190 1.69512e-17
6430.86190 1.76281e-17
6433.90200 1.70883e-17
6436.93200 1.68431e-17
6439.96200 1.66043e-17
6442.99200 1.63733e-17
6446.03210 1.66451e-17
6449.06210 1.67486e-17
6452.09210 1.66634e-17
6455.12210 1.68576e-17
6458.15210 1.63673e-17
6461.19220 1.68144e-17
6464.22220 1.72058e-17
6467.25220 1.74277e-17
6470.28220 1.71347e-17
6473.32230 1.75174e-17
6476.35230 1.75841e-17
6479.38230 1.69820e-17
6482.41230 1.64853e-17
6485.45240 1.75237e-17
6488.48240 1.74457e-17
6491.51240 1.75262e-17
6494.54240 1.73627e-17
6497.58250 1.66986e-17
6500.61250 1.78250e-17
6503.64250 1.79217e-17
6506.67250 1.78675e-17
6509.70250 1.77225e-17
6512.74260 1.82440e-17
6515.77260 1.90765e-17
6518.80260 1.83856e-17
6521.83260 1.79969e-17
6524.87270 1.80739e-17
6527.90270 1.76175e-17
6530.93270 1.82343e-17
6533.96270 1.86443e-17
6537.00280 1.76956e-17
6540.03280 1.80316e-17
6543.06280 1.81430e-17
6546.09280 1.89290e-17
6549.13290 1.75103e-17
6552.16290 1.74858e-17
6555.19290 1.69908e-17
6558.22290 1.78079e-17
6561.26300 1.73851e-17
6564.29300 1.68219e-17
6567.32300 1.71626e-17
6570.35300 1.67072e-17
6573.39310 1.68307e-17
6576.42310 1.79253e-17
6579.45310 1.72517e-17
6582.48310 1.73163e-17
6585.51310 1.72564e-17
6588.55320 1.70243e-17
6591.58320 1.71468e-17
6594.61320 1.68234e-17
6597.64320 1.68659e-17
6600.68330 1.69085e-17
6603.71330 1.69511e-17
6606.74330 1.69936e-17
6609.77330 1.70362e-17
6612.81340 1.70787e-17
6615.84340 1.71213e-17
6618.87340 1.71638e-17
6621.90340 1.72063e-17
6624.94350 1.72488e-17
6627.97350 1.72913e-17
6631.00350 1.73337e-17
6634.03350 1.73762e-17
6637.07360 1.73016e-17
6640.10360 1.72270e-17
6643.13360 1.71524e-17
6646.16360 1.70779e-17
6649.20370 1.70033e-17
6652.23370 1.69288e-17
6655.26370 1.68542e-17
6658.29370 1.67798e-17
6661.32370 1.67053e-17
6664.36380 1.66308e-17
6667.39380 1.65564e-17
6670.42380 1.64819e-17
6673.45380 1.70554e-17
6676.49390 1.64218e-17
6679.52390 1.64858e-17
6682.55390 1.63900e-17
6685.58390 1.51673e-17
6688.62400 1.55621e-17
6691.65400 1.62977e-17
6694.68400 1.71694e-17
6697.71400 1.67697e-17
6700.75410 1.63996e-17
6703.78410 1.63982e-17
6706.81410 1.63529e-17
6709.84410 1.67224e-17
6712.88420 1.73840e-17
6715.91420 1.73505e-17
6718.94420 1.64620e-17
6721.97420 1.56027e-17
6725.00420 1.62596e-17
6728.04430 1.75293e-17
6731.07430 1.67870e-17
6734.10430 1.59654e-17
6737.13430 1.69201e-17
6740.17440 1.70894e-17
6743.20440 1.76702e-17
6746.23440 1.81505e-17
6749.26440 1.86679e-17
6752.30450 1.73900e-17
6755.33450 1.71510e-17
6758.36450 1.66121e-17
6761.39450 1.57720e-17
6764.43460 1.64460e-17
6767.46460 1.72024e-17
6770.49460 1.79586e-17
6773.52460 1.87148e-17
6776.56470 1.94706e-17
6779.59470 2.02263e-17
6782.62470 1.99020e-17
6785.65470 1.95777e-17
6788.69480 1.92534e-17
6791.72480 1.89293e-17
6794.75480 1.86053e-17
6797.78480 1.82812e-17
6800.81480 1.79573e-17
6803.85490 1.76334e-17
6806.88490 1.73097e-17
6809.91490 1.69860e-17
6812.94490 1.66623e-17
6815.98500 1.63388e-17
6819.01500 1.60153e-17
6822.04500 1.55030e-17
6825.07500 1.52022e-17
6828.11510 1.51959e-17
6831.14510 1.57165e-17
6834.17510 1.49263e-17
6837.20510 1.54173e-17
6840.24520 1.49876e-17
6843.27520 1.50317e-17
6846.30520 1.50387e-17
6849.33520 1.50456e-17
6852.37530 1.50526e-17
6855.40530 1.50595e-17
6858.43530 1.50665e-17
6861.46530 1.50734e-17
6864.49530 1.50804e-17
6867.53540 1.50873e-17
6870.56540 1.50942e-17
6873.59540 1.51012e-17
6876.62540 1.51081e-17
6879.66550 1.51150e-17
6882.69550 1.51220e-17
6885.72550 1.51289e-17
6888.75550 1.51358e-17
6891.79560 1.51427e-17
6894.82560 1.51497e-17
6897.85560 1.51566e-17
6900.88560 1.51635e-17
6903.92570 1.51704e-17
6906.95570 1.51773e-17
6909.98570 1.51842e-17
6913.01570 1.51911e-17
6916.05580 1.51980e-17
6919.08580 1.52049e-17
6922.11580 1.52118e-17
6925.14580 1.52187e-17
6928.17580 1.52256e-17
6931.21590 1.52325e-17
6934.24590 1.52394e-17
6937.27590 1.52463e-17
6940.30590 1.55053e-17
6943.34600 1.59322e-17
6946.37600 1.61059e-17
6949.40600 1.61084e-17
6952.43600 1.50343e-17
6955.47610 1.60315e-17
6958.50610 1.59086e-17
6961.53610 1.52071e-17
6964.56610 1.47907e-17
6967.60620 1.55188e-17
6970.63620 1.60604e-17
6973.66620 1.59817e-17
6976.69620 1.57109e-17
6979.73630 1.62230e-17
6982.76630 1.57175e-17
6985.79630 1.61073e-17
6988.82630 1.51116e-17
6991.86640 1.60310e-17
6994.89640 1.56437e-17
6997.92640 1.45185e-17
7000.95640 1.40664e-17
7003.99650 1.53071e-17
7007.02650 1.52612e-17
7010.05650 1.50441e-17
7013.08650 1.55214e-17
7016.11650 1.50637e-17
7019.15660 1.49852e-17
7022.18660 1.52434e-17
7025.21660 1.55753e-17
7028.24660 1.50226e-17
7031.28670 1.57389e-17
7034.31670 1.50414e-17
7037.34670 1.48315e-17
7040.37670 1.52191e-17
7043.41680 1.49423e-17
7046.44680 1.53804e-17
7049.47680 1.44863e-17
7052.50680 1.46696e-17
7055.54690 1.56140e-17
7058.57690 1.52539e-17
7061.60690 1.55403e-17
7064.63690 1.53077e-17
7067.66690 1.50473e-17
7070.70700 1.50197e-17
7073.73700 1.54394e-17
7076.76700 1.49748e-17
7079.79700 1.50255e-17
7082.83710 1.53485e-17
7085.86710 1.47493e-17
7088.89710 1.43996e-17
7091.92710 1.55884e-17
7094.96720 1.55190e-17
7097.99720 1.52709e-17
7101.02720 1.59886e-17
7104.05720 1.55272e-17
7107.09730 1.53501e-17
7110.12730 1.50018e-17
7113.15730 1.53960e-17
7116.18730 1.58414e-17
7119.22740 1.54347e-17
7122.25740 1.49465e-17
7125.28740 1.52358e-17
7128.31740 1.54304e-17
7131.35750 1.41987e-17
7134.38750 1.60497e-17
7137.41750 1.62247e-17
7140.44750 1.65969e-17
7143.47750 1.54305e-17
7146.51760 1.52339e-17
7149.54760 1.49922e-17
7152.57760 1.54131e-17
7155.60760 1.56421e-17
7158.64770 1.57817e-17
7161.67770 1.49532e-17
7164.70770 1.58589e-17
7167.73770 1.59319e-17
7170.77780 1.68712e-17
7173.80780 1.62349e-17
7176.83780 1.56967e-17
7179.86780 1.48670e-17
7182.90790 1.50828e-17
7185.93790 1.59518e-17
7188.96790 1.57254e-17
7191.99790 1.53086e-17
7195.03800 1.59387e-17
7198.06800 1.58193e-17
7201.09800 1.65893e-17
7204.12800 1.67216e-17
7207.16810 1.58747e-17
7210.19810 1.71112e-17
7213.22810 1.73682e-17
7216.25810 1.60615e-17
7219.28810 1.53098e-17
7222.32820 1.45528e-17
7225.35820 1.55958e-17
7228.38820 1.61454e-17
7231.41820 1.64664e-17
7234.45830 1.57495e-17
7237.48830 1.53713e-17
7240.51830 1.55997e-17
7243.54830 1.61808e-17
7246.58840 1.64464e-17
7249.61840 1.59240e-17
7252.64840 1.56426e-17
7255.67840 1.54419e-17
7258.71850 1.54564e-17
7261.74850 1.47787e-17
7264.77850 1.42643e-17
7267.80850 1.43609e-17
7270.84860 1.38533e-17
7273.87860 1.50290e-17
7276.90860 1.37092e-17
7279.93860 1.45973e-17
7282.97870 1.44569e-17
7286.00870 1.43822e-17
7289.03870 1.47171e-17
7292.06870 1.48084e-17
7295.09870 1.45057e-17
7298.13880 1.37049e-17
7301.16880 1.54794e-17
7304.19880 1.50506e-17
7307.22880 1.45558e-17
7310.26890 1.37250e-17
7313.29890 1.49966e-17
7316.32890 1.37985e-17
7319.35890 1.37872e-17
7322.39900 1.43108e-17
7325.42900 1.41890e-17
7328.45900 1.37949e-17
7331.48900 1.34176e-17
7334.52910 1.40662e-17
7337.55910 1.37447e-17
7340.58910 1.43133e-17
7343.61910 1.41873e-17
7346.65920 1.32036e-17
7349.68920 1.41689e-17
7352.71920 1.48285e-17
7355.74920 1.48676e-17
7358.77920 1.45921e-17
7361.81930 1.44180e-17
7364.84930 1.49669e-17
7367.87930 1.44371e-17
7370.90930 1.34339e-17
7373.94940 1.46601e-17
7376.97940 1.52536e-17
7380.00940 1.39436e-17
7383.03940 1.32710e-17
7386.07950 1.32899e-17
7389.10950 1.36925e-17
7392.13950 1.38997e-17
7395.16950 1.39016e-17
7398.20960 1.46068e-17
7401.23960 1.33027e-17
7404.26960 1.27101e-17
7407.29960 1.34214e-17
7410.33970 1.35897e-17
7413.36970 1.38033e-17
7416.39970 1.39274e-17
7419.42970 1.37049e-17
7422.46980 1.29171e-17
7425.49980 1.31446e-17
7428.52980 1.32006e-17
7431.55980 1.24601e-17
7434.58980 1.36232e-17
7437.62990 1.39547e-17
7440.65990 1.38876e-17
7443.68990 1.31690e-17
7446.71990 1.30623e-17
7449.76000 1.39486e-17
7452.79000 1.30255e-17
7455.82000 1.21985e-17
7458.85000 1.30773e-17
7461.89010 1.26468e-17
7464.92010 1.24736e-17
7467.95010 1.34079e-17
7470.98010 1.30878e-17
7474.02020 1.24492e-17
7477.05020 1.29752e-17
7480.08020 1.26492e-17
7483.11020 1.29093e-17
7486.15030 1.35638e-17
7489.18030 1.27999e-17
7492.21030 1.29274e-17
7495.24030 1.38439e-17
7498.27030 1.41458e-17
7501.31040 1.32451e-17
7504.34040 1.32783e-17
7507.37040 1.40184e-17
7510.40040 1.27549e-17
7513.44050 1.31518e-17
7516.47050 1.30209e-17
7519.50050 1.38578e-17
7522.53050 1.28989e-17
7525.57060 1.24849e-17
7528.60060 1.29156e-17
7531.63060 1.29462e-17
7534.66060 1.32709e-17
7537.70070 1.40403e-17
7540.73070 1.40146e-17
7543.76070 1.34214e-17
7546.79070 1.30446e-17
7549.83080 1.38887e-17
7552.86080 1.39066e-17
7555.89080 1.39245e-17
7558.92080 1.39424e-17
7561.95080 1.39604e-17
7564.99090 1.39783e-17
7568.02090 1.39962e-17
7571.05090 1.40141e-17
7574.08090 1.40320e-17
7577.12100 1.40499e-17
7580.15100 1.40677e-17
7583.18100 1.40856e-17
7586.21100 1.41035e-17
7589.25110 1.41214e-17
7592.28110 1.41392e-17
7595.31110 1.41571e-17
7598.34110 1.41749e-17
7601.38120 1.41928e-17
7604.41120 1.42106e-17
7607.44120 1.42285e-17
7610.47120 1.42463e-17
7613.51130 1.42641e-17
7616.54130 1.42819e-17
7619.57130 1.42997e-17
7622.60130 1.43175e-17
7625.64140 1.43354e-17
7628.67140 1.43531e-17
7631.70140 1.43709e-17
7634.73140 1.43887e-17
7637.76140 1.44065e-17
7640.80150 1.44243e-17
7643.83150 1.44421e-17
7646.86150 1.44598e-17
7649.89150 1.44776e-17
7652.93160 1.44953e-17
7655.96160 1.45131e-17
7658.99160 1.45308e-17
7662.02160 1.45486e-17
7665.06170 1.45663e-17
7668.09170 1.45840e-17
7671.12170 1.46018e-17
7674.15170 1.46195e-17
7677.19180 1.46372e-17
7680.22180 1.46549e-17
7683.25180 1.51488e-17
7686.28180 1.54525e-17
7689.32190 1.60224e-17
7692.35190 1.47447e-17
7695.38190 1.46567e-17
7698.41190 1.42195e-17
7701.44190 1.48051e-17
7704.48200 1.45364e-17
7707.51200 1.39387e-17
7710.54200 1.35710e-17
7713.57200 1.36252e-17
7716.61210 1.49242e-17
7719.64210 1.42503e-17
7722.67210 1.44111e-17
7725.70210 1.52662e-17
7728.74220 1.54880e-17
7731.77220 1.50422e-17
7734.80220 1.36090e-17
7737.83220 1.47043e-17
7740.87230 1.49112e-17
7743.90230 1.54034e-17
7746.93230 1.54674e-17
7749.96230 1.35829e-17
7753.00240 1.28814e-17
7756.03240 1.42904e-17
7759.06240 1.39122e-17
7762.09240 1.23967e-17
7765.13250 1.30091e-17
7768.16250 1.40658e-17
7771.19250 1.43697e-17
7774.22250 1.38591e-17
7777.25250 1.35998e-17
7780.29260 1.31255e-17
7783.32260 1.34295e-17
7786.35260 1.33594e-17
7789.38260 1.30355e-17
7792.42270 1.40689e-17
7795.45270 1.33438e-17
7798.48270 1.33647e-17
7801.51270 1.13727e-17
7804.55280 1.22634e-17
7807.58280 1.19567e-17
7810.61280 1.21293e-17
7813.64280 1.25385e-17
7816.68290 1.24068e-17
7819.71290 1.38075e-17
7822.74290 1.15921e-17
7825.77290 1.24855e-17
7828.81300 1.19949e-17
7831.84300 1.16387e-17
7834.87300 1.18728e-17
7837.90300 1.07638e-17
7840.94310 1.07805e-17
7843.97310 1.03862e-17
7847.00310 1.13086e-17
7850.03310 1.10813e-17
7853.06310 1.18844e-17
7856.10320 9.98966e-18
7859.13320 1.05388e-17
7862.16320 1.01252e-17
7865.19320 1.02251e-17
7868.23330 1.11670e-17
7871.26330 1.01808e-17
7874.29330 1.08589e-17
7877.32330 1.06371e-17
7880.36340 1.00448e-17
7883.39340 1.02765e-17
7886.42340 1.14309e-17
7889.45340 1.20630e-17
7892.49350 1.00968e-17
7895.52350 9.61501e-18
7898.55350 8.90656e-18
7901.58350 1.04194e-17
7904.61350 1.03484e-17
7907.65360 1.04722e-17
7910.68360 9.18175e-18
7913.71360 1.14452e-17
7916.74360 9.49293e-18
7919.78370 8.90783e-18
7922.81370 8.66956e-18
7925.84370 8.80166e-18
7928.87370 7.58916e-18
7931.91380 7.78842e-18
7934.94380 8.59870e-18
7937.97380 8.35032e-18
7941.00380 8.32020e-18
7944.04390 9.43305e-18
7947.07390 1.08696e-17
7950.10390 9.72623e-18
7953.13390 9.48511e-18
7956.17400 9.91291e-18
7959.20400 9.24697e-18
7962.23400 9.03279e-18
7965.26400 7.69300e-18
7968.30410 8.19210e-18
7971.33410 8.43750e-18
7974.36410 8.51703e-18
7977.39410 8.88820e-18
7980.43420 9.31356e-18
7983.46420 8.47869e-18
7986.49420 8.76365e-18
7989.52420 7.66059e-18
7992.55420 8.24550e-18
7995.59430 7.70734e-18
7998.62430 8.31883e-18
8001.65430 7.92752e-18
8004.68430 7.83032e-18
8007.72440 9.13913e-18
8010.75440 8.79249e-18
8013.78440 8.53012e-18
8016.81440 8.82569e-18
8019.85450 8.16733e-18
8022.88450 8.71732e-18
8025.91450 8.00658e-18
8028.94450 7.33018e-18
8031.98460 8.54483e-18
8035.01460 7.78633e-18
8038.04460 7.81360e-18
8041.07460 8.30155e-18
8044.11470 8.54471e-18
8047.14470 9.37252e-18
8050.17470 9.23315e-18
8053.20470 8.41475e-18
8056.24480 7.50009e-18
8059.27480 6.77983e-18
8062.30480 7.83829e-18
8065.33480 7.55753e-18
8068.36480 7.64594e-18
8071.40490 8.90639e-18
8074.43490 7.53731e-18
8077.46490 7.95360e-18
8080.49490 8.22719e-18
8083.53500 8.52569e-18
8086.56500 8.85180e-18
8089.59500 8.38156e-18
8092.62500 8.76331e-18
8095.66510 8.05003e-18
8098.69510 8.38984e-18
8101.72510 7.77628e-18
8104.75510 6.05344e-18
8107.79520 6.82779e-18
8110.82520 7.53963e-18
8113.85520 7.03561e-18
8116.88520 7.38632e-18
8119.92530 6.52037e-18
8122.95530 7.71123e-18
8125.98530 7.51409e-18
8129.01530 7.39516e-18
8132.04530 8.76108e-18
8135.08540 7.48872e-18
8138.11540 6.99483e-18
8141.14540 8.53371e-18
8144.17540 7.98090e-18
8147.21550 7.62094e-18
8150.24550 7.73831e-18
8153.27550 7.95497e-18
8156.30550 8.53991e-18
8159.34560 7.91862e-18
8162.37560 6.54389e-18
8165.40560 7.65665e-18
8168.43560 8.99795e-18
8171.47570 7.97021e-18
8174.50570 7.93131e-18
8177.53570 7.52709e-18
8180.56570 7.06825e-18
8183.60580 7.42892e-18
8186.63580 8.00761e-18
8189.66580 8.49771e-18
8192.69580 7.92730e-18
8195.72580 7.69356e-18
8198.76590 7.95053e-18
8201.79590 7.65070e-18
8204.82590 8.11336e-18
8207.85590 8.86891e-18
8210.89600 8.67856e-18
8213.92600 8.52850e-18
8216.95600 9.63173e-18
8219.98600 8.26582e-18
8223.02610 7.90522e-18
8226.05610 9.30152e-18
8229.08610 9.44834e-18
8232.11610 8.69288e-18
8235.15620 9.58896e-18
8238.18620 9.39188e-18
8241.21620 7.42606e-18
8244.24620 7.25927e-18
8247.27620 7.66378e-18
8250.31630 8.35948e-18
8253.34630 8.36689e-18
8256.37630 7.31430e-18
8259.40630 8.19643e-18
8262.44640 9.62294e-18
8265.47640 8.55077e-18
8268.50640 8.43257e-18
8271.53640 8.95761e-18
8274.57650 9.22452e-18
8277.60650 8.24544e-18
8280.63650 9.74268e-18
8283.66650 9.53533e-18
8286.70660 9.81229e-18
8289.73660 8.18383e-18
8292.76660 7.91816e-18
8295.79660 8.45041e-18
8298.83670 9.32391e-18
8301.86670 9.58667e-18
8304.89670 9.60493e-18
8307.92670 1.01269e-17
8310.96680 8.81481e-18
8313.99680 1.04727e-17
8317.02680 9.74512e-18
8320.05680 9.99589e-18
8323.08680 9.42638e-18
8326.12690 1.05344e-17
8329.15690 9.67043e-18
8332.18690 1.04330e-17
8335.21690 1.03656e-17
8338.25700 1.00090e-17
8341.28700 1.21543e-17
8344.31700 9.80885e-18
8347.35710 1.03021e-17
8350.38710 1.20067e-17
8353.41710 1.14967e-17
8356.44710 1.04651e-17
8359.47710 1.10040e-17
8362.51720 1.16879e-17
8365.54720 1.12830e-17
8368.57720 1.22919e-17
8371.60720 1.07074e-17
8374.64730 1.01446e-17
8377.67730 1.07497e-17
8380.70730 1.17584e-17
8383.73730 1.13852e-17
8386.77740 1.28880e-17
8389.80740 1.05536e-17
8392.83740 1.11670e-17
8395.86740 1.05972e-17
8398.90750 1.22838e-17
8401.93750 1.18629e-17
8404.96750 1.06372e-17
8407.99750 1.20388e-17
8411.02750 1.36919e-17
8414.06760 1.20739e-17
8417.09760 1.33724e-17
8420.12760 1.39167e-17
8423.15760 1.27485e-17
8426.19770 1.34451e-17
8429.22770 1.60294e-17
8432.25770 1.62218e-17
8435.28770 1.44543e-17
8438.32780 1.36434e-17
8441.35780 1.47167e-17
8444.38780 1.44338e-17
8447.41780 1.38889e-17
8450.45790 1.41237e-17
8453.48790 1.38617e-17
8456.51790 1.38385e-17
8459.54790 1.39203e-17
8462.57790 1.31840e-17
8465.61800 1.16721e-17
8468.64800 1.43499e-17
8471.67800 1.41968e-17
8474.70800 1.50426e-17
8477.74810 1.49667e-17
8480.77810 1.55595e-17
8483.80810 1.65458e-17
8486.83810 1.65189e-17
8489.87820 1.59858e-17
8492.90820 1.62964e-17
8495.93820 1.64987e-17
8498.96820 1.63084e-17
8502.00830 1.72582e-17
8505.03830 1.78803e-17
8508.06830 1.66423e-17
8511.09830 1.42010e-17
8514.13840 1.41425e-17
8517.16840 1.58204e-17
8520.19840 1.63369e-17
8523.22840 1.63508e-17
8526.26850 1.64892e-17
8529.29850 1.73917e-17
8532.32850 1.69881e-17
8535.35850 1.57671e-17
8538.39860 1.74608e-17
8541.42860 1.86213e-17
8544.45860 1.79528e-17
8547.48860 1.74573e-17
8550.52870 1.62674e-17
8553.55870 1.83997e-17
8556.58870 1.66576e-17
8559.61870 1.67571e-17
8562.65880 1.53607e-17
8565.68880 1.52338e-17
8568.71880 1.67934e-17
8571.74880 1.84773e-17
8574.77880 1.72037e-17
8577.81890 1.87444e-17
8580.84890 1.85595e-17
8583.87890 1.85560e-17
8586.90890 1.98547e-17
8589.94900 1.77881e-17
8592.97900 1.77432e-17
8596.00900 1.77328e-17
8599.03900 1.72515e-17
8602.07910 1.67733e-17
8605.10910 1.64640e-17
8608.13910 1.66512e-17
8611.16910 1.83607e-17
8614.20920 1.87663e-17
8617.23920 1.68997e-17
8620.26920 1.81170e-17
8623.29920 1.84173e-17
8626.32920 1.91609e-17
8629.36930 1.72333e-17
8632.39930 1.91356e-17
8635.42930 2.17898e-17
8638.45930 2.11189e-17
8641.49940 1.99950e-17
8644.52940 1.86240e-17
8647.55940 1.51854e-17
8650.58940 1.66134e-17
8653.62950 1.80255e-17
8656.65950 1.71524e-17
8659.68950 1.86332e-17
8662.71950 1.86852e-17
8665.75960 1.84358e-17
8668.78960 1.96033e-17
8671.81960 1.95339e-17
8674.84960 1.78377e-17
8677.87960 1.87084e-17
8680.91970 1.88181e-17
8683.94970 1.86985e-17
8686.97970 1.87508e-17
8690.00970 1.83672e-17
8693.04980 1.87686e-17
8696.07980 1.63152e-17
8699.10980 1.52351e-17
8702.13980 1.56631e-17
8705.17990 1.58108e-17
8708.20990 1.54443e-17
8711.23990 1.72131e-17
8714.26990 1.67303e-17
8717.31000 1.65667e-17
8720.34000 1.77592e-17
8723.37000 1.61280e-17
8726.40000 1.65929e-17
8729.44010 1.60873e-17
8732.47010 1.77940e-17
8735.50010 1.73164e-17
8738.53010 1.61395e-17
8741.57020 1.69304e-17
8744.60020 1.64011e-17
8747.63020 1.61920e-17
8750.66020 1.63019e-17
8753.70030 1.61685e-17
8756.73030 1.63251e-17
8759.76030 1.41371e-17
8762.79030 1.32485e-17
8765.83040 1.32353e-17
8768.86040 1.43067e-17
8771.89040 1.37165e-17
8774.92040 1.33199e-17
8777.95040 1.58456e-17
8780.99050 1.65146e-17
8784.02050 1.64164e-17
8787.05050 1.65751e-17
8790.08050 1.89076e-17
8793.12060 1.93146e-17
8796.15060 1.74787e-17
8799.18060 1.53936e-17
8802.21060 1.50116e-17
8805.25070 1.50524e-17
8808.28070 1.44307e-17
8811.31070 1.56318e-17
8814.34070 1.44770e-17
8817.38080 1.39154e-17
8820.41080 1.57396e-17
8823.44080 1.32125e-17
8826.47080 1.24704e-17
8829.50080 1.21301e-17
8832.54090 1.10536e-17
8835.57090 1.13134e-17
8838.60090 1.19026e-17
8841.63090 1.36885e-17
8844.67100 1.41628e-17
8847.70100 1.43258e-17
8850.73100 1.45477e-17
8853.76100 1.34640e-17
8856.80110 1.24979e-17
8859.83110 1.53872e-17
8862.86110 1.31356e-17
8865.89110 1.28387e-17
8868.93120 1.40244e-17
8871.96120 1.21967e-17
8874.99120 1.37409e-17
8878.02120 1.44525e-17
8881.05120 1.33509e-17
8884.09130 1.41662e-17
8887.12130 1.60158e-17
8890.15130 1.39732e-17
8893.19140 1.41671e-17
8896.22140 1.45613e-17
8899.25140 1.14235e-17
8902.28140 1.36036e-17
8905.32150 1.34792e-17
8908.35150 1.10137e-17
8911.38150 1.25060e-17
8914.41150 1.11504e-17
8917.44150 1.29705e-17
8920.48160 1.21469e-17
8923.51160 1.32974e-17
8926.54160 1.26968e-17
8929.57160 1.15446e-17
8932.61170 1.27433e-17
8935.64170 1.17042e-17
8938.67170 1.22351e-17
8941.70170 1.34495e-17
8944.74180 1.06679e-17
8947.77180 9.82614e-18
8950.80180 1.20723e-17
8953.83180 1.24551e-17
8956.87190 1.08904e-17
8959.90190 1.16323e-17
8962.93190 1.20004e-17
8965.96190 1.21903e-17
8969.00200 1.14504e-17
8972.03200 1.15550e-17
8975.06200 1.00055e-17
8978.09200 1.15234e-17
8981.12200 1.14088e-17
8984.16210 8.96373e-18
8987.19210 9.24811e-18
8990.22210 1.26232e-17
8993.25210 1.28790e-17
8996.29220 9.48882e-18
8999.32220 1.21183e-17
9002.35220 1.07746e-17
9005.38220 9.20337e-18
9008.42230 1.13966e-17
9011.45230 1.08275e-17
9014.48230 1.13378e-17
9017.51230 1.21109e-17
9020.55240 1.07911e-17
9023.58240 1.13689e-17
9026.61240 9.90495e-18
9029.64240 9.49813e-18
9032.68250 1.15157e-17
9035.71250 1.16497e-17
9038.74250 1.01733e-17
9041.77250 9.86802e-18
9044.80250 1.28290e-17
9047.84260 1.33648e-17
9050.87260 1.37652e-17
9053.90260 1.37048e-17
9056.93260 1.16956e-17
9059.97270 1.11064e-17
9063.00270 1.30258e-17
9066.03270 1.04769e-17
9069.06270 1.04891e-17
9072.10280 9.49087e-18
9075.13280 1.04966e-17
9078.16280 1.00481e-17
9081.19280 1.00558e-17
9084.23290 1.09623e-17
9087.26290 1.10497e-17
9090.29290 1.05586e-17
9093.32290 1.03593e-17
9096.36300 9.58478e-18
9099.39300 9.89680e-18
9102.42300 1.05274e-17
9105.45300 1.13608e-17
9108.49310 1.15592e-17
9111.52310 1.20751e-17
9114.55310 1.19529e-17
9117.58310 1.13308e-17
9120.61310 1.14794e-17
9123.65320 1.24379e-17
9126.68320 1.33737e-17
9129.71320 1.33224e-17
9132.74320 1.27816e-17
9135.78330 1.37473e-17
9138.81330 1.43556e-17
9141.84330 1.11986e-17
9144.87330 1.16283e-17
9147.91340 1.13526e-17
9150.94340 1.14314e-17
9153.97340 1.12011e-17
9157.00340 1.09709e-17
9160.04350 1.07407e-17
9163.07350 1.05105e-17
9166.10350 1.02804e-17
9169.13350 1.00503e-17
9172.17360 9.82018e-18
9175.20360 9.06836e-18
9178.23360 1.03844e-17
9181.26360 1.01676e-17
9184.29360 9.66404e-18
9187.33370 1.00104e-17
9190.36370 8.86275e-18
9193.39370 1.20210e-17
9196.42370 1.02125e-17
9199.46380 9.55853e-18
9202.49380 1.04300e-17
9205.52380 9.11145e-18
9208.55380 9.31513e-18
9211.59390 1.03187e-17
9214.62390 8.73386e-18
9217.65390 8.86776e-18
9220.68390 1.09070e-17
9223.72400 1.06585e-17
9226.75400 9.20943e-18
9229.78400 1.07371e-17
9232.81400 9.81758e-18
9235.85410 9.80048e-18
9238.88410 9.78340e-18
9241.91410 9.76631e-18
9244.94410 9.74922e-18
9247.97410 8.83295e-18
9251.01420 8.64632e-18
9254.04420 9.48626e-18
9257.07420 7.98960e-18
9260.10420 8.34167e-18
9263.14430 8.46113e-18
9266.17430 9.37018e-18
9269.20430 8.32205e-18
9272.23430 8.42299e-18
9275.27440 1.09958e-17
9278.30440 9.66324e-18
9281.33440 9.42846e-18
9284.36440 1.06034e-17
9287.40450 1.02231e-17
9290.43450 1.10907e-17
9293.46450 9.11710e-18
9296.49450 9.30986e-18
9299.53460 9.18528e-18
9302.56460 9.88770e-18
9305.59460 8.23483e-18
9308.62460 6.77322e-18
9311.65460 8.56192e-18
9314.69470 1.05293e-17
9317.72470 9.09041e-18
9320.75470 6.23130e-18
9323.78470 1.11183e-17
9326.82480 9.84972e-18
9329.85480 6.51151e-18
9332.88480 7.68773e-18
9335.91480 9.44418e-18
9338.95490 6.60456e-18
9341.98490 5.68651e-18
9345.01490 8.28273e-18
9348.04490 8.35832e-18
9351.08500 7.09795e-18
9354.11500 8.96856e-18
9357.14500 8.80354e-18
9360.17500 6.66274e-18
9363.21510 8.29412e-18
9366.24510 6.66451e-18
9369.27510 6.67121e-18
9372.30510 6.67790e-18
9375.34520 6.68459e-18
9378.37520 9.10329e-18
9381.40520 1.04234e-17
9384.43520 7.17926e-18
9387.46520 7.54148e-18
9390.50530 7.90378e-18
9393.53530 8.26591e-18
9396.56530 8.62799e-18
9399.59530 6.05977e-18
9402.63540 7.45360e-18
9405.66540 5.54723e-18
9408.69540 6.58174e-18
9411.72540 7.94949e-18
9414.76550 7.25665e-18
9417.79550 6.45983e-18
9420.82550 8.26247e-18
9423.85550 7.72761e-18
9426.89560 8.51949e-18
9429.92560 8.05902e-18
9432.95560 7.90963e-18
9435.98560 8.68993e-18
9439.02570 4.46178e-18
9442.05570 7.18096e-18
9445.08570 6.55112e-18
9448.11570 7.83402e-18
9451.15580 4.25383e-18
9454.18580 6.65020e-18
9457.21580 5.73276e-18
9460.24580 5.19673e-18
9463.27580 1.02303e-17
9466.31590 8.70468e-18
9469.34590 8.68915e-18
9472.37590 5.21018e-18
9475.40590 4.07689e-18
9478.44600 7.16539e-18
9481.47600 8.75336e-18
9484.50600 6.24228e-18
9487.53600 2.80873e-18
9490.57610 6.05562e-18
9493.60610 7.76453e-18
9496.63610 7.48535e-18
9499.66610 3.58543e-18
9502.70620 3.47488e-18
9505.73620 4.50997e-18
9508.76620 5.65108e-18
9511.79620 3.25668e-18
9514.82620 5.58706e-18
9517.86630 3.26181e-18
9520.89630 5.38999e-18
9523.92630 5.42626e-18
9526.95630 4.96149e-18
9529.99640 4.00064e-18
9533.02640 2.55310e-18
9536.05640 5.82635e-18
9539.08640 3.36100e-18
9542.12650 1.20341e-18
9545.15650 5.76133e-18
9548.18650 5.06737e-18
9551.21650 2.95190e-18
9554.25660 2.93710e-18
9557.28660 5.45234e-18
9560.31660 8.03407e-18
9563.34660 6.79543e-18
9566.38670 7.42327e-18
9569.41670 7.02404e-18
9572.44670 2.67616e-18
9575.47670 5.45671e-18
9578.51680 5.04915e-18
9581.54680 4.89953e-18
9584.57680 6.48306e-18
9587.60680 6.12566e-18
9590.63680 3.94619e-18
9593.67690 6.43682e-18
9596.70690 7.00206e-18
9599.73690 4.88095e-18
9602.76690 5.22287e-18
9605.80700 9.77194e-18
9608.83700 5.00901e-18
9611.86700 1.81333e-18
9614.89700 4.00207e-18
9617.93710 9.21985e-18
9620.96710 6.53653e-18
9623.99710 6.25011e-18
9627.02710 1.27564e-17
9630.06720 1.79948e-17
9633.09720 2.02654e-17
9636.12720 1.43900e-17
9639.15720 7.30981e-18
9642.19730 4.20180e-18
9645.22730 4.95370e-18
9648.25730 8.67145e-18
9651.28730 8.42993e-18
9654.32740 1.14017e-17
9657.35740 7.88627e-18
