# wavelength flux
3714.20430 1.27993e-18
3716.19400 2.23412e-18
3718.19380 1.31370e-18
3720.19360 2.10253e-18
3722.19340 2.81814e-18
3724.18310 3.08979e-18
3726.18290 2.10167e-18
3728.18270 1.87041e-18
3730.18250 2.07633e-18
3732.17220 2.25113e-18
3734.17200 1.81584e-18
3736.17180 1.71607e-18
3738.17160 1.22470e-18
3740.16130 1.48359e-18
3742.16110 1.07904e-18
3744.16090 9.18314e-19
3746.16070 1.00774e-18
3748.15040 1.06286e-18
3750.15020 1.11796e-18
3752.15000 1.17305e-18
3754.14980 1.22811e-18
3756.14960 1.28315e-18
3758.13930 1.33817e-18
3760.13910 1.39317e-18
3762.13890 1.44815e-18
3764.13870 1.50311e-18
3766.12840 1.55805e-18
3768.12820 1.61296e-18
3770.12800 1.66787e-18
3772.12780 1.72275e-18
3774.11750 1.77761e-18
3776.11730 1.83245e-18
3778.11710 1.88728e-18
3780.11690 1.94208e-18
3782.10660 1.99686e-18
3784.10640 2.05162e-18
3786.10620 2.10638e-18
3788.10600 2.58495e-18
3790.09570 2.49615e-18
3792.09550 1.89229e-18
3794.09530 2.74492e-18
3796.09510 2.26947e-18
3798.08480 1.90474e-18
3800.08460 1.39326e-18
3802.08440 1.67871e-18
3804.08420 2.84537e-18
3806.08400 2.42940e-18
3808.07370 2.67320e-18
3810.07350 3.05288e-18
3812.07330 2.42749e-18
3814.07310 2.18918e-18
3816.06280 2.15437e-18
3818.06260 2.41288e-18
3820.06240 1.84311e-18
3822.06220 2.04428e-18
3824.05190 2.08385e-18
3826.05170 2.59736e-18
3828.05150 2.26781e-18
3830.05130 2.48190e-18
3832.04100 2.33161e-18
3834.04080 2.40086e-18
3836.04060 2.40173e-18
3838.04040 2.15867e-18
3840.03010 2.48447e-18
3842.02990 2.94527e-18
3844.02970 2.49852e-18
3846.02950 3.17062e-18
3848.01920 2.90528e-18
3850.01900 2.55606e-18
3852.01880 2.77005e-18
3854.01860 3.17458e-18
3856.01840 2.48471e-18
3858.00810 2.63278e-18
3860.00790 2.63404e-18
3862.00770 2.82260e-18
3864.00750 2.74499e-18
3865.99720 2.41332e-18
3867.99700 2.28493e-18
3869.99680 2.87930e-18
3871.99660 3.31096e-18
3873.98630 2.97055e-18
3875.98610 3.20844e-18
3877.98590 3.55492e-18
3879.98570 2.71097e-18
3881.97540 2.49614e-18
3883.97520 3.24866e-18
3885.97500 3.30141e-18
3887.97480 3.34532e-18
3889.96450 2.80042e-18
3891.96430 2.81129e-18
3893.96410 2.83225e-18
3895.96390 3.04963e-18
3897.95360 3.01616e-18
3899.95340 2.58368e-18
3901.95320 2.47993e-18
3903.95300 2.94340e-18
3905.94270 2.61803e-18
3907.94250 2.96591e-18
3909.94230 2.65085e-18
3911.94210 3.13588e-18
3913.94190 3.00284e-18
3915.93160 3.22426e-18
3917.93140 2.66069e-18
3919.93120 3.48864e-18
3921.93100 3.28973e-18
3923.92070 3.16708e-18
3925.92050 3.79386e-18
3927.92030 4.36289e-18
3929.92010 4.06382e-18
3931.90980 3.57754e-18
3933.90960 2.47764e-18
3935.90940 2.82849e-18
3937.90920 2.92088e-18
3939.89890 2.86942e-18
3941.89870 3.03440e-18
3943.89850 2.99731e-18
3945.89830 2.94190e-18
3947.88800 3.16700e-18
3949.88780 3.10662e-18
3951.88760 2.98744e-18
3953.88740 2.74138e-18
3955.87710 3.02734e-18
3957.87690 3.18592e-18
3959.87670 3.36198e-18
3961.87650 3.10435e-18
3963.87630 3.17591e-18
3965.86600 2.72839e-18
3967.86580 2.61345e-18
3969.86560 2.76930e-18
3971.86540 2.61316e-18
3973.85510 2.50850e-18
3975.85490 2.76638e-18
3977.85470 3.33064e-18
3979.85450 2.93338e-18
3981.84420 2.74929e-18
3983.84400 2.64455e-18
3985.84380 2.74104e-18
3987.84360 3.13869e-18
3989.83330 2.54363e-18
3991.83310 2.91486e-18
3993.83290 3.08551e-18
3995.83270 2.65088e-18
3997.82240 2.43407e-18
3999.82220 2.72174e-18
4001.82200 2.78542e-18
4003.82180 2.94189e-18
4005.81150 3.16980e-18
4007.81130 3.39958e-18
4009.81110 3.65751e-18
4011.81090 4.02017e-18
4013.80060 3.42325e-18
4015.80040 3.05045e-18
4017.80020 3.12957e-18
4019.80000 3.30854e-18
4021.79980 3.05308e-18
4023.78950 2.98889e-18
4025.78930 3.03682e-18
4027.78910 2.94306e-18
4029.78890 3.23471e-18
4031.77860 2.81324e-18
4033.77840 2.61087e-18
4035.77820 2.87214e-18
4037.77800 2.97464e-18
4039.76770 3.13573e-18
4041.76750 3.19537e-18
4043.76730 2.79595e-18
4045.76710 2.94851e-18
4047.75680 2.79717e-18
4049.75660 2.99560e-18
4051.75640 2.75684e-18
4053.75620 2.71375e-18
4055.74590 2.60741e-18
4057.74570 2.60300e-18
4059.74550 2.46722e-18
4061.74530 2.62878e-18
4063.73500 2.70153e-18
4065.73480 2.51696e-18
4067.73460 2.99236e-18
4069.73440 2.74107e-18
4071.73420 3.07265e-18
4073.72390 3.13666e-18
4075.72370 2.79854e-18
4077.72350 2.88225e-18
4079.72330 3.05511e-18
4081.71300 2.74381e-18
4083.71280 3.20292e-18
4085.71260 3.13778e-18
4087.71240 2.98959e-18
4089.70210 2.71694e-18
4091.70190 2.82801e-18
4093.70170 3.18536e-18
4095.70150 3.09578e-18
4097.69120 3.06278e-18
4099.69100 2.73429e-18
4101.69080 3.14876e-18
4103.69060 2.88042e-18
4105.68030 3.16058e-18
4107.68010 2.82675e-18
4109.67990 2.55252e-18
4111.67970 2.49992e-18
4113.66940 2.82382e-18
4115.66920 2.78453e-18
4117.66900 2.57987e-18
4119.66880 2.65246e-18
4121.65850 2.52171e-18
4123.65830 2.39650e-18
4125.65810 2.38025e-18
4127.65790 2.36282e-18
4129.65770 2.34715e-18
4131.64740 2.29486e-18
4133.64720 2.11989e-18
4135.64700 2.11478e-18
4137.64680 2.49597e-18
4139.63650 2.73393e-18
4141.63630 3.45299e-18
4143.63610 4.24138e-18
4145.63590 4.46000e-18
4147.62560 3.88098e-18
4149.62540 3.46051e-18
4151.62520 3.13724e-18
4153.62500 3.05754e-18
4155.61470 3.23337e-18
4157.61450 2.86915e-18
4159.61430 2.85417e-18
4161.61410 3.28740e-18
4163.60380 2.91176e-18
4165.60360 2.93903e-18
4167.60340 2.85591e-18
4169.60320 3.36715e-18
4171.60300 3.19038e-18
4173.59270 2.91318e-18
4175.59250 3.05233e-18
4177.59230 2.79338e-18
4179.59210 2.96212e-18
4181.58180 2.67313e-18
4183.58160 2.85433e-18
4185.58140 3.17360e-18
4187.58120 3.31757e-18
4189.57090 3.03437e-18
4191.57070 3.12002e-18
4193.57050 3.04338e-18
4195.57030 2.99256e-18
4197.56000 2.92996e-18
4199.55980 3.22154e-18
4201.55960 2.83282e-18
4203.55940 3.19438e-18
4205.54910 3.02565e-18
4207.54890 2.90368e-18
4209.54870 3.12851e-18
4211.54850 3.11808e-18
4213.53820 2.77557e-18
4215.53800 3.03330e-18
4217.53780 3.02642e-18
4219.53760 3.08727e-18
4221.52730 3.12734e-18
4223.52710 3.25564e-18
4225.52690 3.09621e-18
4227.52670 3.26786e-18
4229.52650 3.12564e-18
4231.51620 2.84422e-18
4233.51600 3.24471e-18
4235.51580 3.15881e-18
4237.51560 3.15666e-18
4239.50530 3.15081e-18
4241.50510 3.16060e-18
4243.50490 3.25255e-18
4245.50470 3.07137e-18
4247.49440 3.10207e-18
4249.49420 2.94316e-18
4251.49400 3.42848e-18
4253.49380 3.23870e-18
4255.48350 3.07724e-18
4257.48330 2.92337e-18
4259.48310 3.19268e-18
4261.48290 3.51097e-18
4263.47260 3.11892e-18
4265.47240 3.21122e-18
4267.47220 3.31615e-18
4269.47200 3.42057e-18
4271.46170 3.18282e-18
4273.46150 3.22063e-18
4275.46130 3.21525e-18
4277.46110 3.32809e-18
4279.46090 3.18001e-18
4281.45060 3.16875e-18
4283.45040 3.25552e-18
4285.45020 3.28845e-18
4287.45000 3.23700e-18
4289.43970 3.49669e-18
4291.43950 3.44706e-18
4293.43930 3.34370e-18
4295.43910 3.29326e-18
4297.42880 3.45339e-18
4299.42860 3.57625e-18
4301.42840 3.15229e-18
4303.42820 3.42114e-18
4305.41790 3.35536e-18
4307.41770 3.87063e-18
4309.41750 3.68223e-18
4311.41730 3.62811e-18
4313.40700 3.55608e-18
4315.40680 3.55997e-18
4317.40660 3.19390e-18
4319.40640 3.58505e-18
4321.39610 3.72352e-18
4323.39590 3.89824e-18
4325.39570 3.79918e-18
4327.39550 3.51346e-18
4329.38520 3.74057e-18
4331.38500 3.68629e-18
4333.38480 3.65124e-18
4335.38460 3.78114e-18
4337.38440 3.47672e-18
4339.37410 3.78454e-18
4341.37390 3.66148e-18
4343.37370 3.86728e-18
4345.37350 4.02709e-18
4347.36320 3.78911e-18
4349.36300 3.82544e-18
4351.36280 3.88676e-18
4353.36260 3.85904e-18
4355.35230 4.04322e-18
4357.35210 3.92440e-18
4359.35190 3.86360e-18
4361.35170 3.67370e-18
4363.34140 3.67741e-18
4365.34120 4.08999e-18
4367.34100 3.78167e-18
4369.34080 4.11268e-18
4371.33050 4.06650e-18
4373.33030 4.20528e-18
4375.33010 4.04311e-18
4377.32990 4.07121e-18
4379.32970 4.09932e-18
4381.31940 4.12741e-18
4383.31920 4.15550e-18
4385.31900 4.18357e-18
4387.31880 4.21164e-18
4389.30850 4.23969e-18
4391.30830 4.26774e-18
4393.30810 4.29577e-18
4395.30790 4.32380e-18
4397.29760 4.35181e-18
4399.29740 4.37983e-18
4401.29720 4.40783e-18
4403.29700 4.43581e-18
4405.28670 4.46379e-18
4407.28650 4.49176e-18
4409.28630 4.51972e-18
4411.28610 4.54767e-18
4413.27580 4.57561e-18
4415.27560 4.60354e-18
4417.27540 4.63145e-18
4419.27520 4.65937e-18
4421.26490 4.68727e-18
4423.26470 4.71516e-18
4425.26450 4.74304e-18
4427.26430 4.77091e-18
4429.25400 4.79878e-18
4431.25380 4.82663e-18
4433.25360 4.85447e-18
4435.25340 4.88230e-18
4437.25320 4.91013e-18
4439.24290 4.70563e-18
4441.24270 4.83474e-18
4443.24250 4.78173e-18
4445.24230 5.11704e-18
4447.23200 5.10906e-18
4449.23180 5.01752e-18
4451.23160 5.10458e-18
4453.23140 5.04606e-18
4455.22110 5.17509e-18
4457.22090 5.23579e-18
4459.22070 4.92396e-18
4461.22050 5.19783e-18
4463.21020 5.20118e-18
4465.21000 4.93987e-18
4467.20980 4.95824e-18
4469.20960 4.83865e-18
4471.19930 4.86007e-18
4473.19910 5.09870e-18
4475.19890 5.13930e-18
4477.19870 5.11680e-18
4479.18840 5.20354e-18
4481.18820 5.16766e-18
4483.18800 5.17308e-18
4485.18780 5.38193e-18
4487.17750 5.20386e-18
4489.17730 5.29203e-18
4491.17710 5.54346e-18
4493.17690 5.48772e-18
4495.17670 5.37525e-18
4497.16640 5.47881e-18
4499.16620 5.45531e-18
4501.16600 5.32943e-18
4503.16580 5.44969e-18
4505.15550 5.04327e-18
4507.15530 5.18031e-18
4509.15510 5.39313e-18
4511.15490 5.17899e-18
4513.14460 5.30552e-18
4515.14440 5.58579e-18
4517.14420 5.23520e-18
4519.14400 5.37887e-18
4521.13370 5.39655e-18
4523.13350 5.37937e-18
4525.13330 5.50959e-18
4527.13310 5.57607e-18
4529.12280 5.33154e-18
4531.12260 5.18764e-18
4533.12240 5.92686e-18
4535.12220 5.54972e-18
4537.11190 5.62762e-18
4539.11170 5.65583e-18
4541.11150 5.64299e-18
4543.11130 5.61714e-18
4545.11110 5.30727e-18
4547.10080 5.53650e-18
4549.10060 5.64873e-18
4551.10040 5.49912e-18
4553.10020 5.73387e-18
4555.08990 5.60077e-18
4557.08970 5.63607e-18
4559.08950 5.71336e-18
4561.08930 5.41767e-18
4563.07900 5.41884e-18
4565.07880 5.42800e-18
4567.07860 5.70626e-18
4569.07840 5.79119e-18
4571.06810 5.55178e-18
4573.06790 5.35619e-18
4575.06770 5.56855e-18
4577.06750 5.72461e-18
4579.05720 5.72751e-18
4581.05700 5.68783e-18
4583.05680 5.62107e-18
4585.05660 5.66219e-18
4587.04630 5.69735e-18
4589.04610 5.74049e-18
4591.04590 5.35259e-18
4593.04570 5.54995e-18
4595.03540 5.39820e-18
4597.03520 5.59752e-18
4599.03500 5.60197e-18
4601.03480 5.46451e-18
4603.03460 5.44324e-18
4605.02430 5.38771e-18
4607.02410 5.42510e-18
4609.02390 5.33182e-18
4611.02370 5.45975e-18
4613.01340 5.38843e-18
4615.01320 5.47496e-18
4617.01300 5.37419e-18
4619.01280 5.38722e-18
4621.00250 5.53906e-18
4623.00230 5.40824e-18
4625.00210 5.54094e-18
4627.00190 5.38966e-18
4628.99160 5.19972e-18
4630.99140 5.29103e-18
4632.99120 5.30396e-18
4634.99100 5.20563e-18
4636.98070 5.37811e-18
4638.98050 5.56745e-18
4640.98030 5.24478e-18
4642.98010 5.40519e-18
4644.97990 5.20431e-18
4646.96960 5.33812e-18
4648.96940 5.40257e-18
4650.96920 5.07614e-18
4652.96900 5.16203e-18
4654.95870 5.20869e-18
4656.95850 4.98616e-18
4658.95830 5.10568e-18
4660.95810 5.34428e-18
4662.94780 5.17055e-18
4664.94760 5.34452e-18
4666.94740 5.19919e-18
4668.94720 5.13569e-18
4670.93690 5.29562e-18
4672.93670 5.48905e-18
4674.93650 5.29067e-18
4676.93630 5.08123e-18
4678.92600 5.22368e-18
4680.92580 5.17234e-18
4682.92560 5.08626e-18
4684.92540 5.29724e-18
4686.91510 5.27711e-18
4688.91490 5.04964e-18
4690.91470 5.12678e-18
4692.91450 5.20241e-18
4694.90420 5.22783e-18
4696.90400 5.14834e-18
4698.90380 5.30795e-18
4700.90360 5.02700e-18
4702.90340 5.10945e-18
4704.89310 4.96091e-18
4706.89290 5.06562e-18
4708.89270 5.10222e-18
4710.89250 5.13327e-18
4712.88220 5.17857e-18
4714.88200 5.25284e-18
4716.88180 5.30150e-18
4718.88160 5.16834e-18
4720.87130 5.07528e-18
4722.87110 5.18191e-18
4724.87090 5.13283e-18
4726.87070 5.12222e-18
4728.86040 5.32199e-18
4730.86020 5.38401e-18
4732.86000 5.41346e-18
4734.85980 5.23750e-18
4736.84950 5.13591e-18
4738.84930 5.35590e-18
4740.84910 5.19085e-18
4742.84890 5.15147e-18
4744.83860 5.31217e-18
4746.83840 5.26952e-18
4748.83820 5.29905e-18
4750.83800 5.44024e-18
4752.83780 5.57238e-18
4754.82750 5.72544e-18
4756.82730 5.50155e-18
4758.82710 5.26531e-18
4760.82690 5.53804e-18
4762.81660 5.32189e-18
4764.81640 5.48290e-18
4766.81620 5.34647e-18
4768.81600 5.33363e-18
4770.80570 5.24080e-18
4772.80550 5.36573e-18
4774.80530 5.36685e-18
4776.80510 5.31613e-18
4778.79480 5.34334e-18
4780.79460 5.36141e-18
4782.79440 5.41028e-18
4784.79420 5.11930e-18
4786.78390 5.16706e-18
4788.78370 5.30050e-18
4790.78350 5.29226e-18
4792.78330 5.15213e-18
4794.77300 5.04197e-18
4796.77280 5.10627e-18
4798.77260 4.94014e-18
4800.77240 5.08484e-18
4802.76210 5.01437e-18
4804.76190 4.95197e-18
4806.76170 5.01741e-18
4808.76150 5.02718e-18
4810.76130 5.14099e-18
4812.75100 5.03082e-18
4814.75080 4.83114e-18
4816.75060 4.85062e-18
4818.75040 5.01682e-18
4820.74010 5.06365e-18
4822.73990 5.03563e-18
4824.73970 4.85842e-18
4826.73950 4.93899e-18
4828.72920 5.07226e-18
4830.72900 4.85505e-18
4832.72880 5.04300e-18
4834.72860 5.12554e-18
4836.71830 5.18353e-18
4838.71810 5.18912e-18
4840.71790 5.30111e-18
4842.71770 5.06262e-18
4844.70740 4.99756e-18
4846.70720 5.17936e-18
4848.70700 5.19552e-18
4850.70680 5.30086e-18
4852.70660 5.36035e-18
4854.69630 5.25536e-18
4856.69610 5.20104e-18
4858.69590 5.41353e-18
4860.69570 5.03983e-18
4862.68540 4.97270e-18
4864.68520 5.17445e-18
4866.68500 5.32977e-18
4868.68480 5.31634e-18
4870.67450 5.37883e-18
4872.67430 5.48264e-18
4874.67410 5.52823e-18
4876.67390 5.54573e-18
4878.66360 5.63672e-18
4880.66340 5.54770e-18
4882.66320 5.62464e-18
4884.66300 5.64507e-18
4886.65270 5.67456e-18
4888.65250 5.65704e-18
4890.65230 5.62098e-18
4892.65210 5.63846e-18
4894.64180 5.65593e-18
4896.64160 5.67339e-18
4898.64140 5.69085e-18
4900.64120 5.70830e-18
4902.63090 5.72574e-18
4904.63070 5.74318e-18
4906.63050 5.76061e-18
4908.63030 5.77804e-18
4910.63010 5.79546e-18
4912.61980 5.81288e-18
4914.61960 5.83028e-18
4916.61940 5.84768e-18
4918.61920 5.86508e-18
4920.60890 5.88247e-18
4922.60870 5.89985e-18
4924.60850 5.91724e-18
4926.60830 5.93461e-18
4928.59800 5.95197e-18
4930.59780 6.13525e-18
4932.59760 5.79331e-18
4934.59740 6.02449e-18
4936.58710 5.98496e-18
4938.58690 6.07883e-18
4940.58670 6.03108e-18
4942.58650 5.87446e-18
4944.57620 5.87455e-18
4946.57600 5.82535e-18
4948.57580 6.02500e-18
4950.57560 5.80462e-18
4952.57540 5.90061e-18
4954.56510 6.01092e-18
4956.56490 6.13407e-18
4958.56470 6.00024e-18
4960.56450 5.90085e-18
4962.55420 5.94707e-18
4964.55400 5.79313e-18
4966.55380 5.93542e-18
4968.55360 5.99993e-18
4970.54330 6.01081e-18
4972.54310 6.17313e-18
4974.54290 6.31370e-18
4976.54270 6.09460e-18
4978.53240 5.90518e-18
4980.53220 6.01482e-18
4982.53200 6.36596e-18
4984.53180 6.34631e-18
4986.52150 6.38824e-18
4988.52130 6.26800e-18
4990.52110 6.28467e-18
4992.52090 6.30135e-18
4994.51060 6.31802e-18
4996.51040 6.33468e-18
4998.51020 6.35134e-18
5000.51000 6.36799e-18
5002.49970 6.38464e-18
5004.49950 6.40129e-18
5006.49930 6.41792e-18
5008.49910 6.43455e-18
5010.48880 6.45117e-18
5012.48860 6.46780e-18
5014.48840 6.48441e-18
5016.48820 6.50102e-18
5018.48800 6.51762e-18
5020.47770 6.53423e-18
5022.47750 6.55082e-18
5024.47730 6.56741e-18
5026.47710 6.58399e-18
5028.46680 6.60057e-18
5030.46660 6.68204e-18
5032.46640 6.51590e-18
5034.46620 6.60672e-18
5036.45590 6.71216e-18
5038.45570 6.89945e-18
5040.45550 6.92941e-18
5042.45530 6.95935e-18
5044.44500 6.98930e-18
5046.44480 7.01923e-18
5048.44460 7.04915e-18
5050.44440 7.07906e-18
5052.43410 7.10896e-18
5054.43390 7.13885e-18
5056.43370 7.16874e-18
5058.43350 7.19860e-18
5060.43330 7.22847e-18
5062.42300 7.25832e-18
5064.42280 7.28817e-18
5066.42260 7.31800e-18
5068.42240 7.34782e-18
5070.41210 7.37764e-18
5072.41190 7.40745e-18
5074.41170 7.43723e-18
5076.41150 7.46703e-18
5078.40120 7.46441e-18
5080.40100 7.29465e-18
5082.40080 7.64412e-18
5084.40060 7.71801e-18
5086.39030 7.65498e-18
5088.39010 7.57994e-18
5090.38990 7.68456e-18
5092.38970 7.86754e-18
5094.37940 8.02585e-18
5096.37920 8.06803e-18
5098.37900 7.80745e-18
5100.37880 7.89551e-18
5102.36850 8.10735e-18
5104.36830 8.14924e-18
5106.36810 7.91966e-18
5108.36790 8.00960e-18
5110.35760 8.15189e-18
5112.35740 8.08906e-18
5114.35720 8.12980e-18
5116.35700 8.07613e-18
5118.35680 8.07769e-18
5120.34650 8.40424e-18
5122.34630 8.23218e-18
5124.34610 8.24556e-18
5126.34590 8.56497e-18
5128.33560 8.39765e-18
5130.33540 8.24984e-18
5132.33520 8.49839e-18
5134.33500 8.53600e-18
5136.32470 8.38336e-18
5138.32450 8.50223e-18
5140.32430 8.57495e-18
5142.32410 8.66334e-18
5144.31380 8.75553e-18
5146.31360 8.84243e-18
5148.31340 8.55435e-18
5150.31320 8.60743e-18
5152.30290 8.90397e-18
5154.30270 8.87570e-18
5156.30250 8.79972e-18
5158.30230 8.89566e-18
5160.30210 9.00687e-18
5162.29180 8.96089e-18
5164.29160 8.96694e-18
5166.29140 9.05089e-18
5168.29120 8.96749e-18
5170.28090 8.96128e-18
5172.28070 9.10603e-18
5174.28050 9.12950e-18
5176.28030 9.04179e-18
5178.27000 9.04807e-18
5180.26980 9.17945e-18
5182.26960 9.19330e-18
5184.26940 9.15024e-18
5186.25910 9.23695e-18
5188.25890 9.45860e-18
5190.25870 9.42774e-18
5192.25850 9.45467e-18
5194.24820 9.27664e-18
5196.24800 9.13796e-18
5198.24780 9.19501e-18
5200.24760 9.34210e-18
5202.23730 9.28524e-18
5204.23710 9.47217e-18
5206.23690 9.30012e-18
5208.23670 9.42388e-18
5210.22640 9.51763e-18
5212.22620 9.46850e-18
5214.22600 9.59436e-18
5216.22580 9.68151e-18
5218.22560 9.66025e-18
5220.21530 9.80247e-18
5222.21510 9.90865e-18
5224.21490 9.88888e-18
5226.21470 9.83100e-18
5228.20440 9.98846e-18
5230.20420 1.01524e-17
5232.20400 9.91449e-18
5234.20380 9.92834e-18
5236.19350 1.00299e-17
5238.19330 1.02480e-17
5240.19310 1.03194e-17
5242.19290 1.04354e-17
5244.18260 1.05462e-17
5246.18240 1.03704e-17
5248.18220 1.05128e-17
5250.18200 1.07370e-17
5252.17170 1.06864e-17
5254.17150 1.05441e-17
5256.17130 1.05591e-17
5258.17110 1.05486e-17
5260.16080 1.04825e-17
5262.16060 1.06981e-17
5264.16040 1.07003e-17
5266.16020 1.06801e-17
5268.16000 1.07645e-17
5270.14970 1.08440e-17
5272.14950 1.11103e-17
5274.14930 1.09949e-17
5276.14910 1.10614e-17
5278.13880 1.09885e-17
5280.13860 1.11455e-17
5282.13840 1.12337e-17
5284.13820 1.15425e-17
5286.12790 1.12789e-17
5288.12770 1.14244e-17
5290.12750 1.13964e-17
5292.12730 1.14328e-17
5294.11700 1.13003e-17
5296.11680 1.13338e-17
5298.11660 1.17321e-17
5300.11640 1.20435e-17
5302.10610 1.19185e-17
5304.10590 1.21196e-17
5306.10570 1.22419e-17
5308.10550 1.20786e-17
5310.09520 1.22040e-17
5312.09500 1.24526e-17
5314.09480 1.23450e-17
5316.09460 1.23452e-17
5318.08430 1.24518e-17
5320.08410 1.25598e-17
5322.08390 1.26081e-17
5324.08370 1.27237e-17
5326.08350 1.27197e-17
5328.07320 1.28739e-17
5330.07300 1.30036e-17
5332.07280 1.29449e-17
5334.07260 1.28564e-17
5336.06230 1.30582e-17
5338.06210 1.31350e-17
5340.06190 1.30489e-17
5342.06170 1.32330e-17
5344.05140 1.31316e-17
5346.05120 1.31019e-17
5348.05100 1.35139e-17
5350.05080 1.34382e-17
5352.04050 1.34305e-17
5354.04030 1.35776e-17
5356.04010 1.36150e-17
5358.03990 1.38156e-17
5360.02960 1.35585e-17
5362.02940 1.39666e-17
5364.02920 1.41437e-17
5366.02900 1.41566e-17
5368.01870 1.38826e-17
5370.01850 1.40147e-17
5372.01830 1.39396e-17
5374.01810 1.39830e-17
5376.00780 1.40777e-17
5378.00760 1.42185e-17
5380.00740 1.43143e-17
5382.00720 1.43558e-17
5384.00700 1.43294e-17
5385.99670 1.45243e-17
5387.99650 1.42235e-17
5389.99630 1.41429e-17
5391.99610 1.42012e-17
5393.98580 1.44050e-17
5395.98560 1.44115e-17
5397.98540 1.44959e-17
5399.98520 1.47339e-17
5401.97490 1.43812e-17
5403.97470 1.45503e-17
5405.97450 1.46849e-17
5407.97430 1.46059e-17
5409.96400 1.47443e-17
5411.96380 1.48034e-17
5413.96360 1.44853e-17
5415.96340 1.46042e-17
5417.95310 1.45194e-17
5419.95290 1.47669e-17
5421.95270 1.48375e-17
5423.95250 1.46289e-17
5425.95230 1.44803e-17
5427.94200 1.49446e-17
5429.94180 1.48966e-17
5431.94160 1.48257e-17
5433.94140 1.47157e-17
5435.93110 1.48046e-17
5437.93090 1.51980e-17
5439.93070 1.49692e-17
5441.93050 1.47616e-17
5443.92020 1.49190e-17
5445.92000 1.52002e-17
5447.91980 1.51224e-17
5449.91960 1.52583e-17
5451.90930 1.51250e-17
5453.90910 1.54087e-17
5455.90890 1.52668e-17
5457.90870 1.52101e-17
5459.89840 1.51443e-17
5461.89820 1.50452e-17
5463.89800 1.53990e-17
5465.89780 1.54149e-17
5467.88750 1.54310e-17
5469.88730 1.54532e-17
5471.88710 1.52921e-17
5473.88690 1.51996e-17
5475.87660 1.53078e-17
5477.87640 1.49561e-17
5479.87620 1.50683e-17
5481.87600 1.50508e-17
5483.86570 1.50753e-17
5485.86550 1.50374e-17
5487.86530 1.51843e-17
5489.86510 1.53889e-17
5491.86490 1.53951e-17
5493.85460 1.51592e-17
5495.85440 1.52805e-17
5497.85420 1.51858e-17
5499.85400 1.55293e-17
5501.84370 1.51968e-17
5503.84350 1.48746e-17
5505.84330 1.51895e-17
5507.84310 1.53439e-17
5509.83280 1.51903e-17
5511.83260 1.51560e-17
5513.83240 1.51380e-17
5515.83220 1.51391e-17
5517.82190 1.52467e-17
5519.82170 1.50349e-17
5521.82150 1.48437e-17
5523.82130 1.53148e-17
5525.81100 1.51892e-17
5527.81080 1.51701e-17
5529.81060 1.53860e-17
5531.81040 1.51383e-17
5533.81020 1.51424e-17
5535.79990 1.50669e-17
5537.79970 1.51507e-17
5539.79950 1.47088e-17
5541.79930 1.50275e-17
5543.78900 1.48793e-17
5545.78880 1.46514e-17
5547.78860 1.48716e-17
5549.78840 1.47729e-17
5551.77810 1.47143e-17
5553.77790 1.46472e-17
5555.77770 1.46247e-17
5557.77750 1.43512e-17
5559.76720 1.47078e-17
5561.76700 1.45323e-17
5563.76680 1.44167e-17
5565.76660 1.44969e-17
5567.75630 1.43628e-17
5569.75610 1.42164e-17
5571.75590 1.42215e-17
5573.75570 1.40748e-17
5575.74540 1.42037e-17
5577.74520 1.41252e-17
5579.74500 1.37763e-17
5581.74480 1.39895e-17
5583.73450 1.39571e-17
5585.73430 1.38251e-17
5587.73410 1.36548e-17
5589.73390 1.37048e-17
5591.73370 1.34038e-17
5593.72340 1.35209e-17
5595.72320 1.37573e-17
5597.72300 1.38009e-17
5599.72280 1.33606e-17
5601.71250 1.34456e-17
5603.71230 1.31542e-17
5605.71210 1.34730e-17
5607.71190 1.32736e-17
5609.70160 1.33681e-17
5611.70140 1.35097e-17
5613.70120 1.32971e-17
5615.70100 1.34108e-17
5617.69070 1.37515e-17
5619.69050 1.37271e-17
5621.69030 1.37422e-17
5623.69010 1.37067e-17
5625.67980 1.34181e-17
5627.67960 1.36103e-17
5629.67940 1.35070e-17
5631.67920 1.35584e-17
5633.67900 1.34769e-17
5635.66870 1.35712e-17
5637.66850 1.34638e-17
5639.66830 1.35546e-17
5641.66810 1.34610e-17
5643.65780 1.34953e-17
5645.65760 1.33206e-17
5647.65740 1.32082e-17
5649.65720 1.32407e-17
5651.64690 1.33318e-17
5653.64670 1.31814e-17
5655.64650 1.33010e-17
5657.64630 1.34169e-17
5659.63600 1.35518e-17
5661.63580 1.34239e-17
5663.63560 1.31906e-17
5665.63540 1.29110e-17
5667.62510 1.30798e-17
5669.62490 1.31418e-17
5671.62470 1.31997e-17
5673.62450 1.31719e-17
5675.61420 1.30714e-17
5677.61400 1.32126e-17
5679.61380 1.31522e-17
5681.61360 1.33310e-17
5683.60330 1.35071e-17
5685.60310 1.35233e-17
5687.60290 1.35031e-17
5689.60270 1.35864e-17
5691.60250 1.32722e-17
5693.59220 1.33859e-17
5695.59200 1.36287e-17
5697.59180 1.35047e-17
5699.59160 1.34721e-17
5701.58130 1.35817e-17
5703.58110 1.36499e-17
5705.58090 1.36409e-17
5707.58070 1.36515e-17
5709.57040 1.39225e-17
5711.57020 1.38603e-17
5713.57000 1.34206e-17
5715.56980 1.37639e-17
5717.55950 1.38804e-17
5719.55930 1.39785e-17
5721.55910 1.40295e-17
5723.55890 1.38316e-17
5725.54860 1.40093e-17
5727.54840 1.41450e-17
5729.54820 1.39351e-17
5731.54800 1.40342e-17
5733.53770 1.41310e-17
5735.53750 1.39991e-17
5737.53730 1.42178e-17
5739.53710 1.43472e-17
5741.53690 1.42491e-17
5743.52660 1.41936e-17
5745.52640 1.41309e-17
5747.52620 1.41702e-17
5749.52600 1.40987e-17
5751.51570 1.41791e-17
5753.51550 1.43099e-17
5755.51530 1.46676e-17
5757.51510 1.47070e-17
5759.50480 1.45087e-17
5761.50460 1.44962e-17
5763.50440 1.46656e-17
5765.50420 1.45302e-17
5767.49390 1.46256e-17
5769.49370 1.46870e-17
5771.49350 1.43561e-17
5773.49330 1.44253e-17
5775.48300 1.48372e-17
5777.48280 1.45899e-17
5779.48260 1.43521e-17
5781.48240 1.45176e-17
5783.47210 1.45308e-17
5785.47190 1.45312e-17
5787.47170 1.47201e-17
5789.47150 1.47480e-17
5791.46120 1.47667e-17
5793.46100 1.49127e-17
5795.46080 1.48419e-17
5797.46060 1.49014e-17
5799.46040 1.47100e-17
5801.45010 1.47538e-17
5803.44990 1.47994e-17
5805.44970 1.47018e-17
5807.44950 1.47736e-17
5809.43920 1.50776e-17
5811.43900 1.49516e-17
5813.43880 1.49904e-17
5815.43860 1.49217e-17
5817.42830 1.48348e-17
5819.42810 1.50149e-17
5821.42790 1.50389e-17
5823.42770 1.49757e-17
5825.41740 1.51633e-17
5827.41720 1.49685e-17
5829.41700 1.49783e-17
5831.41680 1.51856e-17
5833.40650 1.49038e-17
5835.40630 1.44913e-17
5837.40610 1.43657e-17
5839.40590 1.44850e-17
5841.39560 1.46372e-17
5843.39540 1.48232e-17
5845.39520 1.48993e-17
5847.39500 1.48318e-17
5849.39480 1.49676e-17
5851.38450 1.50661e-17
5853.38430 1.49009e-17
5855.38410 1.45879e-17
5857.38390 1.48514e-17
5859.37360 1.50263e-17
5861.37340 1.49127e-17
5863.37320 1.48454e-17
5865.37300 1.47813e-17
5867.36270 1.49025e-17
5869.36250 1.49567e-17
5871.36230 1.50732e-17
5873.36210 1.50419e-17
5875.35180 1.50606e-17
5877.35160 1.50214e-17
5879.35140 1.49546e-17
5881.35120 1.50158e-17
5883.34090 1.48118e-17
5885.34070 1.49345e-17
5887.34050 1.46159e-17
5889.34030 1.41801e-17
5891.33000 1.41562e-17
5893.32980 1.43450e-17
5895.32960 1.45270e-17
5897.32940 1.46987e-17
5899.32920 1.48314e-17
5901.31890 1.50058e-17
5903.31870 1.49505e-17
5905.31850 1.49314e-17
5907.31830 1.49124e-17
5909.30800 1.48933e-17
5911.30780 1.48743e-17
5913.30760 1.48553e-17
5915.30740 1.48363e-17
5917.29710 1.48173e-17
5919.29690 1.47983e-17
5921.29670 1.47793e-17
5923.29650 1.47603e-17
5925.28620 1.47413e-17
5927.28600 1.47223e-17
5929.28580 1.47033e-17
5931.28560 1.46844e-17
5933.27530 1.46654e-17
5935.27510 1.46465e-17
5937.27490 1.46275e-17
5939.27470 1.46086e-17
5941.26440 1.45896e-17
5943.26420 1.45707e-17
5945.26400 1.45518e-17
5947.26380 1.45328e-17
5949.25350 1.45139e-17
5951.25330 1.44950e-17
5953.25310 1.44761e-17
5955.25290 1.44572e-17
5957.25270 1.44383e-17
5959.24240 1.44194e-17
5961.24220 1.44005e-17
5963.24200 1.43816e-17
5965.24180 1.43628e-17
5967.23150 1.48723e-17
5969.23130 1.47203e-17
5971.23110 1.44824e-17
5973.23090 1.44137e-17
5975.22060 1.46675e-17
5977.22040 1.44714e-17
5979.22020 1.43836e-17
5981.22000 1.44126e-17
5983.20970 1.39488e-17
5985.20950 1.42125e-17
5987.20930 1.41255e-17
5989.20910 1.42358e-17
5991.19880 1.44452e-17
5993.19860 1.41824e-17
5995.19840 1.39825e-17
5997.19820 1.40992e-17
5999.18790 1.38324e-17
6001.18770 1.40043e-17
6003.18750 1.40222e-17
6005.18730 1.38406e-17
6007.18710 1.39280e-17
6009.17680 1.37179e-17
6011.17660 1.37911e-17
6013.17640 1.37688e-17
6015.17620 1.37428e-17
6017.16590 1.39189e-17
6019.16570 1.37085e-17
6021.16550 1.39081e-17
6023.16530 1.37807e-17
6025.15500 1.37059e-17
6027.15480 1.36406e-17
6029.15460 1.35680e-17
6031.15440 1.36203e-17
6033.14410 1.33210e-17
6035.14390 1.33999e-17
6037.14370 1.34168e-17
6039.14350 1.33362e-17
6041.13320 1.31420e-17
6043.13300 1.31363e-17
6045.13280 1.30472e-17
6047.13260 1.28868e-17
6049.12230 1.27289e-17
6051.12210 1.28524e-17
6053.12190 1.28881e-17
6055.12170 1.29401e-17
6057.12150 1.27890e-17
6059.11120 1.26561e-17
6061.11100 1.23763e-17
6063.11080 1.25139e-17
6065.11060 1.24944e-17
6067.10030 1.24491e-17
6069.10010 1.23484e-17
6071.09990 1.24006e-17
6073.09970 1.22497e-17
6075.08940 1.21896e-17
6077.08920 1.23253e-17
6079.08900 1.23649e-17
6081.08880 1.21253e-17
6083.07850 1.21966e-17
6085.07830 1.21949e-17
6087.07810 1.22053e-17
6089.07790 1.20046e-17
6091.06760 1.20272e-17
6093.06740 1.20076e-17
6095.06720 1.21995e-17
6097.06700 1.19723e-17
6099.05670 1.18606e-17
6101.05650 1.19565e-17
6103.05630 1.18484e-17
6105.05610 1.20071e-17
6107.04580 1.18763e-17
6109.04560 1.19405e-17
6111.04540 1.20382e-17
6113.04520 1.21454e-17
6115.04500 1.20480e-17
6117.03470 1.19744e-17
6119.03450 1.20850e-17
6121.03430 1.20456e-17
6123.03410 1.19579e-17
6125.02380 1.20897e-17
6127.02360 1.20163e-17
6129.02340 1.19491e-17
6131.02320 1.18387e-17
6133.01290 1.19955e-17
6135.01270 1.19862e-17
6137.01250 1.20325e-17
6139.01230 1.18518e-17
6141.00200 1.19417e-17
6143.00180 1.18514e-17
6145.00160 1.18795e-17
6147.00140 1.19416e-17
6148.99110 1.19367e-17
6150.99090 1.19308e-17
6152.99070 1.20368e-17
6154.99050 1.19909e-17
6156.98020 1.20281e-17
6158.98000 1.19013e-17
6160.97980 1.19800e-17
6162.97960 1.19741e-17
6164.97940 1.18646e-17
6166.96910 1.17755e-17
6168.96890 1.16246e-17
6170.96870 1.17090e-17
6172.96850 1.18393e-17
6174.95820 1.18655e-17
6176.95800 1.18459e-17
6178.95780 1.18130e-17
6180.95760 1.18651e-17
6182.94730 1.19321e-17
6184.94710 1.19696e-17
6186.94690 1.18370e-17
6188.94670 1.18986e-17
6190.93640 1.18591e-17
6192.93620 1.19685e-17
6194.93600 1.18587e-17
6196.93580 1.19170e-17
6198.92550 1.17505e-17
6200.92530 1.19612e-17
6202.92510 1.18805e-17
6204.92490 1.19615e-17
6206.91460 1.19322e-17
6208.91440 1.18051e-17
6210.91420 1.21871e-17
6212.91400 1.21368e-17
6214.91380 1.21318e-17
6216.90350 1.23348e-17
6218.90330 1.22487e-17
6220.90310 1.21554e-17
6222.90290 1.22668e-17
6224.89260 1.21511e-17
6226.89240 1.21383e-17
6228.89220 1.21753e-17
6230.89200 1.19283e-17
6232.88170 1.19768e-17
6234.88150 1.21036e-17
6236.88130 1.22870e-17
6238.88110 1.22174e-17
6240.87080 1.22813e-17
6242.87060 1.21703e-17
6244.87040 1.23216e-17
6246.87020 1.22665e-17
6248.85990 1.23602e-17
6250.85970 1.22829e-17
6252.85950 1.24489e-17
6254.85930 1.26608e-17
6256.84900 1.26013e-17
6258.84880 1.23411e-17
6260.84860 1.24179e-17
6262.84840 1.25847e-17
6264.83810 1.27413e-17
6266.83790 1.25591e-17
6268.83770 1.26879e-17
6270.83750 1.28681e-17
6272.83730 1.28258e-17
6274.82700 1.25791e-17
6276.82680 1.28999e-17
6278.82660 1.30309e-17
6280.82640 1.32423e-17
6282.81610 1.33350e-17
6284.81590 1.33456e-17
6286.81570 1.33288e-17
6288.81550 1.32579e-17
6290.80520 1.35853e-17
6292.80500 1.36032e-17
6294.80480 1.35976e-17
6296.80460 1.38539e-17
6298.79430 1.38678e-17
6300.79410 1.36135e-17
6302.79390 1.37174e-17
6304.79370 1.38411e-17
6306.78340 1.39937e-17
6308.78320 1.39638e-17
6310.78300 1.39954e-17
6312.78280 1.40450e-17
6314.77250 1.41502e-17
6316.77230 1.43635e-17
6318.77210 1.41270e-17
6320.77190 1.41536e-17
6322.77170 1.45211e-17
6324.76140 1.44839e-17
6326.76120 1.44926e-17
6328.76100 1.44847e-17
6330.76080 1.41572e-17
6332.75050 1.45609e-17
6334.75030 1.46588e-17
6336.75010 1.43642e-17
6338.74990 1.43432e-17
6340.73960 1.43556e-17
6342.73940 1.41752e-17
6344.73920 1.39469e-17
6346.73900 1.39468e-17
6348.72870 1.39351e-17
6350.72850 1.41369e-17
6352.72830 1.46905e-17
6354.72810 1.47616e-17
6356.71780 1.46627e-17
6358.71760 1.49834e-17
6360.71740 1.52169e-17
6362.71720 1.50083e-17
6364.70690 1.50389e-17
6366.70670 1.53505e-17
6368.70650 1.54979e-17
6370.70630 1.53159e-17
6372.69600 1.52353e-17
6374.69580 1.52558e-17
6376.69560 1.54158e-17
6378.69540 1.54652e-17
6380.69520 1.54112e-17
6382.68490 1.56559e-17
6384.68470 1.58199e-17
6386.68450 1.58442e-17
6388.68430 1.57721e-17
6390.67400 1.56179e-17
6392.67380 1.56970e-17
6394.67360 1.57312e-17
6396.67340 1.57659e-17
6398.66310 1.60149e-17
6400.66290 1.61086e-17
6402.66270 1.61315e-17
6404.66250 1.61715e-17
6406.65220 1.61189e-17
6408.65200 1.62543e-17
6410.65180 1.62717e-17
6412.65160 1.61324e-17
6414.64130 1.60124e-17
6416.64110 1.61312e-17
6418.64090 1.63257e-17
6420.64070 1.62374e-17
6422.63040 1.63985e-17
6424.63020 1.64164e-17
6426.63000 1.63008e-17
6428.62980 1.63069e-17
6430.62960 1.62695e-17
6432.61930 1.63510e-17
6434.61910 1.65244e-17
6436.61890 1.63987e-17
6438.61870 1.64765e-17
6440.60840 1.65422e-17
6442.60820 1.63793e-17
6444.60800 1.63374e-17
6446.60780 1.65430e-17
6448.59750 1.65944e-17
6450.59730 1.64755e-17
6452.59710 1.63828e-17
6454.59690 1.64688e-17
6456.58660 1.67757e-17
6458.58640 1.68384e-17
6460.58620 1.67963e-17
6462.58600 1.68759e-17
6464.57570 1.67495e-17
6466.57550 1.70867e-17
6468.57530 1.68868e-17
6470.57510 1.68630e-17
6472.56480 1.69585e-17
6474.56460 1.68830e-17
6476.56440 1.69490e-17
6478.56420 1.71320e-17
6480.56400 1.70797e-17
6482.55370 1.70627e-17
6484.55350 1.70770e-17
6486.55330 1.73741e-17
6488.55310 1.71063e-17
6490.54280 1.69878e-17
6492.54260 1.70670e-17
6494.54240 1.71937e-17
6496.54220 1.72998e-17
6498.53190 1.71509e-17
6500.53170 1.71475e-17
6502.53150 1.73013e-17
6504.53130 1.72760e-17
6506.52100 1.74161e-17
6508.52080 1.73146e-17
6510.52060 1.72422e-17
6512.52040 1.72332e-17
6514.51010 1.72101e-17
6516.50990 1.73809e-17
6518.50970 1.76472e-17
6520.50950 1.73168e-17
6522.49920 1.73234e-17
6524.49900 1.74778e-17
6526.49880 1.74919e-17
6528.49860 1.75573e-17
6530.48830 1.74855e-17
6532.48810 1.75436e-17
6534.48790 1.70787e-17
6536.48770 1.73903e-17
6538.48750 1.77390e-17
6540.47720 1.76122e-17
6542.47700 1.76139e-17
6544.47680 1.74942e-17
6546.47660 1.75136e-17
6548.46630 1.76437e-17
6550.46610 1.73381e-17
6552.46590 1.72489e-17
6554.46570 1.73766e-17
6556.45540 1.73240e-17
6558.45520 1.74292e-17
6560.45500 1.72370e-17
6562.45480 1.71135e-17
6564.44450 1.73678e-17
6566.44430 1.74623e-17
6568.44410 1.71748e-17
6570.44390 1.70383e-17
6572.43360 1.72837e-17
6574.43340 1.72567e-17
6576.43320 1.72869e-17
6578.43300 1.72394e-17
6580.42270 1.71721e-17
6582.42250 1.71893e-17
6584.42230 1.73455e-17
6586.42210 1.71133e-17
6588.42190 1.70531e-17
6590.41160 1.69964e-17
6592.41140 1.70542e-17
6594.41120 1.68690e-17
6596.41100 1.68536e-17
6598.40070 1.68383e-17
6600.40050 1.68230e-17
6602.40030 1.68077e-17
6604.40010 1.67924e-17
6606.38980 1.67771e-17
6608.38960 1.67619e-17
6610.38940 1.67466e-17
6612.38920 1.67313e-17
6614.37890 1.67160e-17
6616.37870 1.67007e-17
6618.37850 1.66854e-17
6620.37830 1.66701e-17
6622.36800 1.66549e-17
6624.36780 1.66396e-17
6626.36760 1.66243e-17
6628.36740 1.66091e-17
6630.35710 1.65938e-17
6632.35690 1.65785e-17
6634.35670 1.65718e-17
6636.35650 1.65651e-17
6638.35630 1.65584e-17
6640.34600 1.65517e-17
6642.34580 1.65449e-17
6644.34560 1.65382e-17
6646.34540 1.65315e-17
6648.33510 1.65248e-17
6650.33490 1.65181e-17
6652.33470 1.65114e-17
6654.33450 1.65047e-17
6656.32420 1.64980e-17
6658.32400 1.64913e-17
6660.32380 1.64846e-17
6662.32360 1.64779e-17
6664.31330 1.64712e-17
6666.31310 1.64645e-17
6668.31290 1.64578e-17
6670.31270 1.67076e-17
6672.30240 1.67354e-17
6674.30220 1.65675e-17
6676.30200 1.67144e-17
6678.30180 1.65941e-17
6680.29150 1.63257e-17
6682.29130 1.61454e-17
6684.29110 1.65740e-17
6686.29090 1.68113e-17
6688.28060 1.65593e-17
6690.28040 1.66916e-17
6692.28020 1.67622e-17
6694.28000 1.68029e-17
6696.27980 1.70102e-17
6698.26950 1.67359e-17
6700.26930 1.68552e-17
6702.26910 1.71326e-17
6704.26890 1.71359e-17
6706.25860 1.68735e-17
6708.25840 1.65110e-17
6710.25820 1.66537e-17
6712.25800 1.69909e-17
6714.24770 1.69455e-17
6716.24750 1.67456e-17
6718.24730 1.68383e-17
6720.24710 1.68659e-17
6722.23680 1.68253e-17
6724.23660 1.71246e-17
6726.23640 1.70570e-17
6728.23620 1.68799e-17
6730.22590 1.70545e-17
6732.22570 1.71553e-17
6734.22550 1.69984e-17
6736.22530 1.70554e-17
6738.21500 1.70693e-17
6740.21480 1.69728e-17
6742.21460 1.68529e-17
6744.21440 1.68092e-17
6746.21420 1.69843e-17
6748.20390 1.73111e-17
6750.20370 1.72019e-17
6752.20350 1.70169e-17
6754.20330 1.69816e-17
6756.19300 1.69264e-17
6758.19280 1.68798e-17
6760.19260 1.65940e-17
6762.19240 1.66335e-17
6764.18210 1.65029e-17
6766.18190 1.65816e-17
6768.18170 1.66602e-17
6770.18150 1.67388e-17
6772.17120 1.68174e-17
6774.17100 1.68960e-17
6776.17080 1.69746e-17
6778.17060 1.70532e-17
6780.16030 1.69814e-17
6782.16010 1.69094e-17
6784.15990 1.68376e-17
6786.15970 1.67657e-17
6788.14940 1.66938e-17
6790.14920 1.66220e-17
6792.14900 1.65502e-17
6794.14880 1.64783e-17
6796.13850 1.64065e-17
6798.13830 1.63347e-17
6800.13810 1.62629e-17
6802.13790 1.61911e-17
6804.13770 1.61194e-17
6806.12740 1.60476e-17
6808.12720 1.59759e-17
6810.12700 1.59041e-17
6812.12680 1.58324e-17
6814.11650 1.57607e-17
6816.11630 1.56890e-17
6818.11610 1.56173e-17
6820.11590 1.53926e-17
6822.10560 1.53204e-17
6824.10540 1.56422e-17
6826.10520 1.55010e-17
6828.10500 1.52287e-17
6830.09470 1.51438e-17
6832.09450 1.50294e-17
6834.09430 1.50944e-17
6836.09410 1.53756e-17
6838.08380 1.53204e-17
6840.08360 1.52793e-17
6842.08340 1.52690e-17
6844.08320 1.54323e-17
6846.08300 1.54254e-17
6848.07270 1.54185e-17
6850.07250 1.54116e-17
6852.07230 1.54047e-17
6854.07210 1.53978e-17
6856.06180 1.53909e-17
6858.06160 1.53840e-17
6860.06140 1.53771e-17
6862.06120 1.53702e-17
6864.05090 1.53633e-17
6866.05070 1.53564e-17
6868.05050 1.53495e-17
6870.05030 1.53426e-17
6872.04000 1.53357e-17
6874.03980 1.53288e-17
6876.03960 1.53219e-17
6878.03940 1.53150e-17
6880.02910 1.53081e-17
6882.02890 1.53012e-17
6884.02870 1.52943e-17
6886.02850 1.52874e-17
6888.01820 1.52805e-17
6890.01800 1.52736e-17
6892.01780 1.52668e-17
6894.01760 1.52599e-17
6896.00730 1.52530e-17
6898.00710 1.52461e-17
6900.00690 1.52392e-17
6902.00670 1.52323e-17
6904.00650 1.52254e-17
6905.99620 1.52185e-17
6907.99600 1.52117e-17
6909.99580 1.52048e-17
6911.99560 1.51979e-17
6913.98530 1.51910e-17
6915.98510 1.51841e-17
6917.98490 1.51772e-17
6919.98470 1.51704e-17
6921.97440 1.51635e-17
6923.97420 1.51566e-17
6925.97400 1.51497e-17
6927.97380 1.51428e-17
6929.96350 1.51360e-17
6931.96330 1.51291e-17
6933.96310 1.51222e-17
6935.96290 1.51153e-17
6937.95260 1.51607e-17
6939.95240 1.51911e-17
6941.95220 1.51210e-17
6943.95200 1.52880e-17
6945.94170 1.54045e-17
6947.94150 1.51308e-17
6949.94130 1.50953e-17
6951.94110 1.55136e-17
6953.94090 1.49390e-17
6955.93060 1.51354e-17
6957.93040 1.50457e-17
6959.93020 1.50919e-17
6961.93000 1.51587e-17
6963.91970 1.51890e-17
6965.91950 1.51937e-17
6967.91930 1.51890e-17
6969.91910 1.52900e-17
6971.90880 1.51843e-17
6973.90860 1.51212e-17
6975.90840 1.52494e-17
6977.90820 1.50963e-17
6979.89790 1.52109e-17
6981.89770 1.52488e-17
6983.89750 1.50500e-17
6985.89730 1.50592e-17
6987.88700 1.50954e-17
6989.88680 1.49353e-17
6991.88660 1.47833e-17
6993.88640 1.48118e-17
6995.87610 1.48953e-17
6997.87590 1.47116e-17
6999.87570 1.47107e-17
7001.87550 1.47372e-17
7003.86520 1.47572e-17
7005.86500 1.48800e-17
7007.86480 1.49540e-17
7009.86460 1.48512e-17
7011.86440 1.46523e-17
7013.85410 1.47353e-17
7015.85390 1.45394e-17
7017.85370 1.45991e-17
7019.85350 1.47472e-17
7021.84320 1.47584e-17
7023.84300 1.47332e-17
7025.84280 1.47767e-17
7027.84260 1.46542e-17
7029.83230 1.46029e-17
7031.83210 1.46038e-17
7033.83190 1.44652e-17
7035.83170 1.45096e-17
7037.82140 1.45443e-17
7039.82120 1.45863e-17
7041.82100 1.45627e-17
7043.82080 1.45502e-17
7045.81050 1.45528e-17
7047.81030 1.44515e-17
7049.81010 1.45599e-17
7051.80990 1.43754e-17
7053.80970 1.44089e-17
7055.79940 1.47849e-17
7057.79920 1.46503e-17
7059.79900 1.42934e-17
7061.79880 1.43099e-17
7063.78850 1.45555e-17
7065.78830 1.44876e-17
7067.78810 1.44660e-17
7069.78790 1.45826e-17
7071.77760 1.45364e-17
7073.77740 1.45024e-17
7075.77720 1.44626e-17
7077.77700 1.44315e-17
7079.76670 1.43775e-17
7081.76650 1.47573e-17
7083.76630 1.47598e-17
7085.76610 1.47881e-17
7087.75580 1.47673e-17
7089.75560 1.47011e-17
7091.75540 1.45002e-17
7093.75520 1.45461e-17
7095.74490 1.46395e-17
7097.74470 1.47667e-17
7099.74450 1.47798e-17
7101.74430 1.47666e-17
7103.73400 1.46970e-17
7105.73380 1.49268e-17
7107.73360 1.49966e-17
7109.73340 1.48584e-17
7111.73320 1.50677e-17
7113.72290 1.51326e-17
7115.72270 1.49217e-17
7117.72250 1.49381e-17
7119.72230 1.49831e-17
7121.71200 1.50217e-17
7123.71180 1.48960e-17
7125.71160 1.50148e-17
7127.71140 1.50178e-17
7129.70110 1.50953e-17
7131.70090 1.50115e-17
7133.70070 1.50054e-17
7135.70050 1.51065e-17
7137.69020 1.49381e-17
7139.69000 1.49547e-17
7141.68980 1.50789e-17
7143.68960 1.49296e-17
7145.67930 1.50557e-17
7147.67910 1.50445e-17
7149.67890 1.50766e-17
7151.67870 1.52118e-17
7153.66840 1.50372e-17
7155.66820 1.53644e-17
7157.66800 1.52527e-17
7159.66780 1.52843e-17
7161.65750 1.49892e-17
7163.65730 1.49558e-17
7165.65710 1.50691e-17
7167.65690 1.50261e-17
7169.65670 1.51680e-17
7171.64640 1.52315e-17
7173.64620 1.51362e-17
7175.64600 1.50747e-17
7177.64580 1.53566e-17
7179.63550 1.53880e-17
7181.63530 1.54678e-17
7183.63510 1.51052e-17
7185.63490 1.51028e-17
7187.62460 1.55195e-17
7189.62440 1.54442e-17
7191.62420 1.54007e-17
7193.62400 1.53757e-17
7195.61370 1.53788e-17
7197.61350 1.51492e-17
7199.61330 1.51773e-17
7201.61310 1.51771e-17
7203.60280 1.53651e-17
7205.60260 1.52425e-17
7207.60240 1.54529e-17
7209.60220 1.57423e-17
7211.59190 1.55617e-17
7213.59170 1.51829e-17
7215.59150 1.51095e-17
7217.59130 1.51423e-17
7219.59110 1.48473e-17
7221.58080 1.49082e-17
7223.58060 1.49581e-17
7225.58040 1.50329e-17
7227.58020 1.50905e-17
7229.56990 1.47208e-17
7231.56970 1.45859e-17
7233.56950 1.48555e-17
7235.56930 1.51570e-17
7237.55900 1.52819e-17
7239.55880 1.49146e-17
7241.55860 1.49293e-17
7243.55840 1.49589e-17
7245.54810 1.46931e-17
7247.54790 1.46976e-17
7249.54770 1.45104e-17
7251.54750 1.43072e-17
7253.53720 1.44428e-17
7255.53700 1.45463e-17
7257.53680 1.43794e-17
7259.53660 1.43789e-17
7261.52630 1.44558e-17
7263.52610 1.44744e-17
7265.52590 1.43443e-17
7267.52570 1.45426e-17
7269.51540 1.43945e-17
7271.51520 1.43078e-17
7273.51500 1.41683e-17
7275.51480 1.39532e-17
7277.51460 1.41457e-17
7279.50430 1.43517e-17
7281.50410 1.41860e-17
7283.50390 1.37337e-17
7285.50370 1.35491e-17
7287.49340 1.35769e-17
7289.49320 1.34774e-17
7291.49300 1.35671e-17
7293.49280 1.35838e-17
7295.48250 1.36234e-17
7297.48230 1.34645e-17
7299.48210 1.33206e-17
7301.48190 1.33676e-17
7303.47160 1.35665e-17
7305.47140 1.37979e-17
7307.47120 1.38167e-17
7309.47100 1.39625e-17
7311.46070 1.38702e-17
7313.46050 1.38809e-17
7315.46030 1.37203e-17
7317.46010 1.35399e-17
7319.45990 1.35211e-17
7321.44960 1.36040e-17
7323.44940 1.34498e-17
7325.44920 1.34799e-17
7327.44900 1.33576e-17
7329.43870 1.33286e-17
7331.43850 1.32980e-17
7333.43830 1.31349e-17
7335.43810 1.32415e-17
7337.42780 1.32191e-17
7339.42760 1.33809e-17
7341.42740 1.30982e-17
7343.42720 1.28015e-17
7345.41690 1.30672e-17
7347.41670 1.31112e-17
7349.41650 1.30589e-17
7351.41630 1.32937e-17
7353.40600 1.32386e-17
7355.40580 1.32695e-17
7357.40560 1.30148e-17
7359.40540 1.31481e-17
7361.39510 1.32404e-17
7363.39490 1.32042e-17
7365.39470 1.31991e-17
7367.39450 1.31118e-17
7369.38420 1.29403e-17
7371.38400 1.32329e-17
7373.38380 1.31836e-17
7375.38360 1.30842e-17
7377.37330 1.32107e-17
7379.37310 1.30443e-17
7381.37290 1.30579e-17
7383.37270 1.31633e-17
7385.37250 1.32633e-17
7387.36220 1.32588e-17
7389.36200 1.30786e-17
7391.36180 1.31591e-17
7393.36160 1.32767e-17
7395.35130 1.33130e-17
7397.35110 1.31033e-17
7399.35090 1.30766e-17
7401.35070 1.29875e-17
7403.34040 1.29856e-17
7405.34020 1.30178e-17
7407.34000 1.29974e-17
7409.33980 1.29192e-17
7411.32950 1.26437e-17
7413.32930 1.27402e-17
7415.32910 1.25941e-17
7417.32890 1.27292e-17
7419.31860 1.28774e-17
7421.31840 1.27606e-17
7423.31820 1.27370e-17
7425.31800 1.26348e-17
7427.31780 1.24999e-17
7429.30750 1.24630e-17
7431.30730 1.24417e-17
7433.30710 1.27540e-17
7435.30690 1.28853e-17
7437.29660 1.27954e-17
7439.29640 1.28584e-17
7441.29620 1.29031e-17
7443.29600 1.30094e-17
7445.28570 1.29472e-17
7447.28550 1.28164e-17
7449.28530 1.27159e-17
7451.28510 1.26069e-17
7453.27480 1.25715e-17
7455.27460 1.23925e-17
7457.27440 1.26450e-17
7459.27420 1.26114e-17
7461.26390 1.24960e-17
7463.26370 1.23031e-17
7465.26350 1.26366e-17
7467.26330 1.26634e-17
7469.25300 1.22956e-17
7471.25280 1.26020e-17
7473.25260 1.25815e-17
7475.25240 1.23798e-17
7477.24210 1.26172e-17
7479.24190 1.25574e-17
7481.24170 1.24274e-17
7483.24150 1.25622e-17
7485.24130 1.24705e-17
7487.23100 1.22496e-17
7489.23080 1.23435e-17
7491.23060 1.22088e-17
7493.23040 1.21490e-17
7495.22010 1.21662e-17
7497.21990 1.22101e-17
7499.21970 1.22709e-17
7501.21950 1.22606e-17
7503.20920 1.21942e-17
7505.20900 1.20785e-17
7507.20880 1.21493e-17
7509.20860 1.22977e-17
7511.19830 1.24502e-17
7513.19810 1.23319e-17
7515.19790 1.23836e-17
7517.19770 1.24788e-17
7519.18740 1.25350e-17
7521.18720 1.25697e-17
7523.18700 1.25242e-17
7525.18680 1.24754e-17
7527.18660 1.24375e-17
7529.17630 1.25241e-17
7531.17610 1.27981e-17
7533.17590 1.26027e-17
7535.17570 1.25698e-17
7537.16540 1.25378e-17
7539.16520 1.27338e-17
7541.16500 1.26876e-17
7543.16480 1.25982e-17
7545.15450 1.24541e-17
7547.15430 1.25858e-17
7549.15410 1.24918e-17
7551.15390 1.25381e-17
7553.14360 1.25843e-17
7555.14340 1.26306e-17
7557.14320 1.26768e-17
7559.14300 1.27230e-17
7561.13270 1.27693e-17
7563.13250 1.28155e-17
7565.13230 1.28617e-17
7567.13210 1.29079e-17
7569.12180 1.29541e-17
7571.12160 1.30002e-17
7573.12140 1.30464e-17
7575.12120 1.30926e-17
7577.11090 1.31388e-17
7579.11070 1.31849e-17
7581.11050 1.32310e-17
7583.11030 1.32772e-17
7585.11010 1.33233e-17
7587.09980 1.33694e-17
7589.09960 1.34155e-17
7591.09940 1.34616e-17
7593.09920 1.35077e-17
7595.08890 1.35538e-17
7597.08870 1.35999e-17
7599.08850 1.36460e-17
7601.08830 1.36920e-17
7603.07800 1.37381e-17
7605.07780 1.37841e-17
7607.07760 1.38302e-17
7609.07740 1.38762e-17
7611.06710 1.39222e-17
7613.06690 1.39682e-17
7615.06670 1.40143e-17
7617.06650 1.40602e-17
7619.05620 1.41062e-17
7621.05600 1.41522e-17
7623.05580 1.41982e-17
7625.05560 1.42442e-17
7627.04530 1.42901e-17
7629.04510 1.43361e-17
7631.04490 1.43820e-17
7633.04470 1.44279e-17
7635.04450 1.44739e-17
7637.03420 1.45198e-17
7639.03400 1.45657e-17
7641.03380 1.46116e-17
7643.03360 1.46575e-17
7645.02330 1.47034e-17
7647.02310 1.47493e-17
7649.02290 1.47951e-17
7651.02270 1.48410e-17
7653.01240 1.48868e-17
7655.01220 1.49327e-17
7657.01200 1.49785e-17
7659.01180 1.50243e-17
7661.00150 1.50702e-17
7663.00130 1.51160e-17
7665.00110 1.51618e-17
7667.00090 1.52076e-17
7668.99060 1.52534e-17
7670.99040 1.52992e-17
7672.99020 1.53449e-17
7674.99000 1.53907e-17
7676.97970 1.54365e-17
7678.97950 1.54822e-17
7680.97930 1.55279e-17
7682.97910 1.49258e-17
7684.96880 1.52004e-17
7686.96860 1.51220e-17
7688.96840 1.48896e-17
7690.96820 1.51658e-17
7692.96800 1.49005e-17
7694.95770 1.48974e-17
7696.95750 1.50687e-17
7698.95730 1.44060e-17
7700.95710 1.42418e-17
7702.94680 1.42228e-17
7704.94660 1.43443e-17
7706.94640 1.40575e-17
7708.94620 1.41068e-17
7710.93590 1.42682e-17
7712.93570 1.39406e-17
7714.93550 1.39121e-17
7716.93530 1.40145e-17
7718.92500 1.39546e-17
7720.92480 1.38165e-17
7722.92460 1.36880e-17
7724.92440 1.38426e-17
7726.91410 1.40107e-17
7728.91390 1.39259e-17
7730.91370 1.39922e-17
7732.91350 1.40975e-17
7734.91330 1.40280e-17
7736.90300 1.38903e-17
7738.90280 1.39018e-17
7740.90260 1.35718e-17
7742.90240 1.33995e-17
7744.89210 1.33824e-17
7746.89190 1.36403e-17
7748.89170 1.32759e-17
7750.89150 1.31680e-17
7752.88120 1.36591e-17
7754.88100 1.32600e-17
7756.88080 1.33138e-17
7758.88060 1.32278e-17
7760.87030 1.32308e-17
7762.87010 1.31438e-17
7764.86990 1.26497e-17
7766.86970 1.30376e-17
7768.85940 1.28689e-17
7770.85920 1.28952e-17
7772.85900 1.27369e-17
7774.85880 1.28512e-17
7776.84850 1.30812e-17
7778.84830 1.30457e-17
7780.84810 1.30092e-17
7782.84790 1.29148e-17
7784.83760 1.29948e-17
7786.83740 1.29394e-17
7788.83720 1.29448e-17
7790.83700 1.26046e-17
7792.83680 1.24975e-17
7794.82650 1.26623e-17
7796.82630 1.23495e-17
7798.82610 1.22330e-17
7800.82590 1.19769e-17
7802.81560 1.18630e-17
7804.81540 1.17941e-17
7806.81520 1.15984e-17
7808.81500 1.17245e-17
7810.80470 1.15162e-17
7812.80450 1.15052e-17
7814.80430 1.13410e-17
7816.80410 1.12769e-17
7818.79380 1.12797e-17
7820.79360 1.11365e-17
7822.79340 1.10303e-17
7824.79320 1.09400e-17
7826.78290 1.07764e-17
7828.78270 1.08469e-17
7830.78250 1.10089e-17
7832.78230 1.07197e-17
7834.78210 1.06864e-17
7836.77180 1.07888e-17
7838.77160 1.04882e-17
7840.77140 1.04445e-17
7842.77120 1.01529e-17
7844.76090 1.01519e-17
7846.76070 1.01470e-17
7848.76050 1.00230e-17
7850.76030 1.01560e-17
7852.75000 9.87448e-18
7854.74980 9.62112e-18
7856.74960 9.68240e-18
7858.74940 9.76810e-18
7860.73910 9.45665e-18
7862.73890 9.26137e-18
7864.73870 9.46576e-18
7866.73850 9.27604e-18
7868.72820 9.41405e-18
7870.72800 9.52225e-18
7872.72780 9.35766e-18
7874.72760 9.18994e-18
7876.71730 9.21661e-18
7878.71710 9.39633e-18
7880.71690 9.17864e-18
7882.71670 9.00306e-18
7884.70640 9.04563e-18
7886.70620 9.18038e-18
7888.70600 9.14338e-18
7890.70580 9.03462e-18
7892.69550 8.95735e-18
7894.69530 8.70718e-18
7896.69510 8.58388e-18
7898.69490 8.57103e-18
7900.69470 8.37300e-18
7902.68440 8.34516e-18
7904.68420 8.37847e-18
7906.68400 8.41225e-18
7908.68380 8.25220e-18
7910.67350 8.27809e-18
7912.67330 8.27172e-18
7914.67310 8.33273e-18
7916.67290 8.29736e-18
7918.66260 8.54220e-18
7920.66240 8.34056e-18
7922.66220 8.31944e-18
7924.66200 8.12729e-18
7926.65170 8.18943e-18
7928.65150 8.33450e-18
7930.65130 8.11891e-18
7932.65110 8.12313e-18
7934.64080 8.07131e-18
7936.64060 8.15036e-18
7938.64040 8.06141e-18
7940.64020 8.12454e-18
7942.64000 8.07137e-18
7944.62970 7.91124e-18
7946.62950 7.85567e-18
7948.62930 7.80762e-18
7950.62910 7.70670e-18
7952.61880 7.61016e-18
7954.61860 7.56393e-18
7956.61840 7.53068e-18
7958.61820 7.56904e-18
7960.60790 7.50193e-18
7962.60770 7.50658e-18
7964.60750 7.73321e-18
7966.60730 7.73201e-18
7968.59700 7.59482e-18
7970.59680 7.64001e-18
7972.59660 7.72771e-18
7974.59640 7.67165e-18
7976.58610 7.74130e-18
7978.58590 7.77013e-18
7980.58570 7.68063e-18
7982.58550 7.48466e-18
7984.57520 7.48211e-18
7986.57500 7.37405e-18
7988.57480 7.39728e-18
7990.57460 7.52329e-18
7992.56430 7.56217e-18
7994.56410 7.45517e-18
7996.56390 7.20306e-18
7998.56370 7.30890e-18
8000.56350 7.28463e-18
8002.55320 7.11295e-18
8004.55300 7.25342e-18
8006.55280 7.21654e-18
8008.55260 7.17833e-18
8010.54230 7.04544e-18
8012.54210 7.10643e-18
8014.54190 7.16675e-18
8016.54170 6.99713e-18
8018.53140 7.06391e-18
8020.53120 7.43284e-18
8022.53100 7.48707e-18
8024.53080 7.25714e-18
8026.52050 7.27071e-18
8028.52030 7.15955e-18
8030.52010 7.19199e-18
8032.51990 7.05283e-18
8034.50960 7.29741e-18
8036.50940 7.45291e-18
8038.50920 7.28798e-18
8040.50900 7.15466e-18
8042.49870 7.25418e-18
8044.49850 7.19100e-18
8046.49830 7.20213e-18
8048.49810 7.07046e-18
8050.48780 7.23935e-18
8052.48760 7.17277e-18
8054.48740 6.93865e-18
8056.48720 6.99184e-18
8058.48700 7.10467e-18
8060.47670 6.98846e-18
8062.47650 7.15885e-18
8064.47630 7.08639e-18
8066.47610 7.10064e-18
8068.46580 7.12962e-18
8070.46560 7.15833e-18
8072.46540 7.19287e-18
8074.46520 7.05973e-18
8076.45490 6.94037e-18
8078.45470 7.10163e-18
8080.45450 6.80033e-18
8082.45430 7.20854e-18
8084.44400 7.01794e-18
8086.44380 6.96209e-18
8088.44360 6.83567e-18
8090.44340 6.81551e-18
8092.43310 6.84635e-18
8094.43290 6.63652e-18
8096.43270 6.75695e-18
8098.43250 6.68255e-18
8100.42220 6.54346e-18
8102.42200 6.51695e-18
8104.42180 6.47071e-18
8106.42160 6.56141e-18
8108.42140 6.51425e-18
8110.41110 6.49263e-18
8112.41090 6.48772e-18
8114.41070 6.56007e-18
8116.41050 6.38983e-18
8118.40020 6.36542e-18
8120.40000 6.37382e-18
8122.39980 6.38222e-18
8124.39960 6.39062e-18
8126.38930 6.39902e-18
8128.38910 6.40741e-18
8130.38890 6.41581e-18
8132.38870 6.42420e-18
8134.37840 6.46429e-18
8136.37820 6.45717e-18
8138.37800 6.44017e-18
8140.37780 6.37344e-18
8142.36750 6.35981e-18
8144.36730 6.33505e-18
8146.36710 6.45072e-18
8148.36690 6.17987e-18
8150.35660 6.28994e-18
8152.35640 6.32323e-18
8154.35620 6.14172e-18
8156.35600 6.24944e-18
8158.34570 6.26922e-18
8160.34550 6.37086e-18
8162.34530 6.44698e-18
8164.34510 6.37939e-18
8166.34490 6.67362e-18
8168.33460 6.54818e-18
8170.33440 6.57370e-18
8172.33420 6.80638e-18
8174.33400 6.53341e-18
8176.32370 6.47106e-18
8178.32350 6.83971e-18
8180.32330 6.93671e-18
8182.32310 6.78006e-18
8184.31280 6.69148e-18
8186.31260 6.90282e-18
8188.31240 6.79456e-18
8190.31220 6.71990e-18
8192.30190 6.90996e-18
8194.30170 6.91895e-18
8196.30150 6.77306e-18
8198.30130 7.07145e-18
8200.29100 7.14362e-18
8202.29080 6.91780e-18
8204.29060 6.85657e-18
8206.29040 6.70308e-18
8208.29020 6.78576e-18
8210.27990 7.04872e-18
8212.27970 7.10482e-18
8214.27950 7.03406e-18
8216.27930 7.32374e-18
8218.26900 7.14356e-18
8220.26880 7.37623e-18
8222.26860 7.41273e-18
8224.26840 7.11534e-18
8226.25810 7.16368e-18
8228.25790 7.31003e-18
8230.25770 7.68297e-18
8232.25750 7.53100e-18
8234.24720 7.69310e-18
8236.24700 7.67751e-18
8238.24680 7.63070e-18
8240.24660 7.30684e-18
8242.23630 7.48686e-18
8244.23610 7.66131e-18
8246.23590 7.76867e-18
8248.23570 7.64895e-18
8250.22540 7.62607e-18
8252.22520 7.71983e-18
8254.22500 7.84999e-18
8256.22480 7.73684e-18
8258.22460 8.01644e-18
8260.21430 8.10473e-18
8262.21410 8.12571e-18
8264.21390 7.99941e-18
8266.21370 8.14620e-18
8268.20340 8.21896e-18
8270.20320 8.18353e-18
8272.20300 8.03597e-18
8274.20280 8.20649e-18
8276.19250 8.46210e-18
8278.19230 8.26397e-18
8280.19210 8.25258e-18
8282.19190 8.19510e-18
8284.18160 8.65031e-18
8286.18140 8.86645e-18
8288.18120 8.57771e-18
8290.18100 8.40030e-18
8292.17070 8.42486e-18
8294.17050 8.51906e-18
8296.17030 8.65092e-18
8298.17010 8.48755e-18
8300.15980 8.39718e-18
8302.15960 8.70163e-18
8304.15940 8.64236e-18
8306.15920 8.81559e-18
8308.14890 8.87640e-18
8310.14870 9.04823e-18
8312.14850 9.09035e-18
8314.14830 9.00287e-18
8316.14810 9.07527e-18
8318.13780 9.08597e-18
8320.13760 9.31628e-18
8322.13740 9.20481e-18
8324.13720 9.45659e-18
8326.12690 9.42048e-18
8328.12670 9.35887e-18
8330.12650 9.43094e-18
8332.12630 9.54148e-18
8334.11600 9.36523e-18
8336.11580 9.39826e-18
8338.11560 9.70947e-18
8340.11540 9.75597e-18
8342.10510 9.77037e-18
8344.10490 9.54704e-18
8346.10470 9.54326e-18
8348.10450 9.63620e-18
8350.09420 9.66201e-18
8352.09400 1.00198e-17
8354.09380 1.01864e-17
8356.09360 1.00644e-17
8358.08330 1.03443e-17
8360.08310 1.06235e-17
8362.08290 1.05102e-17
8364.08270 1.03447e-17
8366.08250 1.06033e-17
8368.07220 1.08312e-17
8370.07200 1.07635e-17
8372.07180 1.07795e-17
8374.07160 1.10682e-17
8376.06130 1.12700e-17
8378.06110 1.09605e-17
8380.06090 1.07719e-17
8382.06070 1.07558e-17
8384.05040 1.07418e-17
8386.05020 1.10828e-17
8388.05000 1.09901e-17
8390.04980 1.12364e-17
8392.03950 1.13109e-17
8394.03930 1.16695e-17
8396.03910 1.17484e-17
8398.03890 1.18246e-17
8400.02860 1.16968e-17
8402.02840 1.18588e-17
8404.02820 1.17498e-17
8406.02800 1.18814e-17
8408.01770 1.23125e-17
8410.01750 1.23164e-17
8412.01730 1.23563e-17
8414.01710 1.21903e-17
8416.00680 1.24557e-17
8418.00660 1.25634e-17
8420.00640 1.27066e-17
8422.00620 1.27485e-17
8423.99590 1.26551e-17
8425.99570 1.30469e-17
8427.99550 1.31102e-17
8429.99530 1.27259e-17
8431.98500 1.28901e-17
8433.98480 1.29438e-17
8435.98460 1.28348e-17
8437.98440 1.29707e-17
8439.98420 1.30924e-17
8441.97390 1.29722e-17
8443.97370 1.31269e-17
8445.97350 1.36442e-17
8447.97330 1.33697e-17
8449.96300 1.31290e-17
8451.96280 1.37250e-17
8453.96260 1.41873e-17
8455.96240 1.40796e-17
8457.95210 1.42417e-17
8459.95190 1.42338e-17
8461.95170 1.45043e-17
8463.95150 1.47625e-17
8465.94120 1.44314e-17
8467.94100 1.47116e-17
8469.94080 1.49790e-17
8471.94060 1.43099e-17
8473.94040 1.46678e-17
8475.93010 1.45890e-17
8477.92990 1.45332e-17
8479.92970 1.48314e-17
8481.92950 1.44391e-17
8483.91920 1.44679e-17
8485.91900 1.47999e-17
8487.91880 1.49567e-17
8489.91860 1.46674e-17
8491.90830 1.49455e-17
8493.90810 1.51505e-17
8495.90790 1.54192e-17
8497.90770 1.53670e-17
8499.89740 1.56275e-17
8501.89720 1.55657e-17
8503.89700 1.57837e-17
8505.89680 1.57922e-17
8507.88650 1.58334e-17
8509.88630 1.55074e-17
8511.88610 1.59890e-17
8513.88590 1.61333e-17
8515.87560 1.60590e-17
8517.87540 1.62973e-17
8519.87520 1.58476e-17
8521.87500 1.60986e-17
8523.87480 1.60687e-17
8525.86450 1.61313e-17
8527.86430 1.61183e-17
8529.86410 1.63875e-17
8531.86390 1.60614e-17
8533.85360 1.61289e-17
8535.85340 1.65742e-17
8537.85320 1.65245e-17
8539.85300 1.67200e-17
8541.84270 1.65460e-17
8543.84250 1.64337e-17
8545.84230 1.65997e-17
8547.84210 1.65735e-17
8549.83180 1.67529e-17
8551.83160 1.66101e-17
8553.83140 1.69466e-17
8555.83120 1.76141e-17
8557.82090 1.69954e-17
8559.82070 1.70407e-17
8561.82050 1.74652e-17
8563.82030 1.73210e-17
8565.81000 1.70202e-17
8567.80980 1.69508e-17
8569.80960 1.69174e-17
8571.80940 1.67881e-17
8573.80920 1.67030e-17
8575.79890 1.71476e-17
8577.79870 1.72370e-17
8579.79850 1.65572e-17
8581.79830 1.68281e-17
8583.78800 1.72839e-17
8585.78780 1.74204e-17
8587.78760 1.69584e-17
8589.78740 1.71667e-17
8591.77710 1.77443e-17
8593.77690 1.75364e-17
8595.77670 1.78482e-17
8597.77650 1.78254e-17
8599.76620 1.78831e-17
8601.76600 1.76642e-17
8603.76580 1.78243e-17
8605.76560 1.80137e-17
8607.75530 1.81380e-17
8609.75510 1.81171e-17
8611.75490 1.75434e-17
8613.75470 1.76171e-17
8615.74440 1.76921e-17
8617.74420 1.74729e-17
8619.74400 1.68266e-17
8621.74380 1.68642e-17
8623.73350 1.73650e-17
8625.73330 1.77039e-17
8627.73310 1.77356e-17
8629.73290 1.75631e-17
8631.72260 1.71644e-17
8633.72240 1.75649e-17
8635.72220 1.71502e-17
8637.72200 1.73369e-17
8639.71170 1.71739e-17
8641.71150 1.74935e-17
8643.71130 1.79025e-17
8645.71110 1.75947e-17
8647.71090 1.80391e-17
8649.70060 1.75362e-17
8651.70040 1.73748e-17
8653.70020 1.77474e-17
8655.70000 1.77672e-17
8657.68970 1.75249e-17
8659.68950 1.70889e-17
8661.68930 1.78998e-17
8663.68910 1.73234e-17
8665.67880 1.71346e-17
8667.67860 1.70137e-17
8669.67840 1.72147e-17
8671.67820 1.69327e-17
8673.66790 1.73347e-17
8675.66770 1.68481e-17
8677.66750 1.68222e-17
8679.66730 1.67551e-17
8681.66710 1.72447e-17
8683.65680 1.71099e-17
8685.65660 1.77356e-17
8687.65640 1.76926e-17
8689.65620 1.74875e-17
8691.64590 1.71702e-17
8693.64570 1.71477e-17
8695.64550 1.70681e-17
8697.64530 1.71178e-17
8699.63500 1.75003e-17
8701.63480 1.74865e-17
8703.63460 1.69680e-17
8705.63440 1.64047e-17
8707.62410 1.65608e-17
8709.62390 1.65898e-17
8711.62370 1.63642e-17
8713.62350 1.62809e-17
8715.61320 1.62856e-17
8717.61300 1.60226e-17
8719.61280 1.61925e-17
8721.61260 1.64101e-17
8723.60230 1.65731e-17
8725.60210 1.63076e-17
8727.60190 1.62843e-17
8729.60170 1.67029e-17
8731.60150 1.59237e-17
8733.59120 1.60830e-17
8735.59100 1.63894e-17
8737.59080 1.65497e-17
8739.59060 1.67075e-17
8741.58030 1.62323e-17
8743.58010 1.64872e-17
8745.57990 1.66395e-17
8747.57970 1.65659e-17
8749.56940 1.60518e-17
8751.56920 1.61747e-17
8753.56900 1.59518e-17
8755.56880 1.58842e-17
8757.55850 1.59688e-17
8759.55830 1.58634e-17
8761.55810 1.57965e-17
8763.55790 1.55486e-17
8765.54760 1.52303e-17
8767.54740 1.55564e-17
8769.54720 1.54610e-17
8771.54700 1.54847e-17
8773.53670 1.62628e-17
8775.53650 1.59688e-17
8777.53630 1.60604e-17
8779.53610 1.60369e-17
8781.52580 1.58712e-17
8783.52560 1.60951e-17
8785.52540 1.59060e-17
8787.52520 1.58010e-17
8789.52500 1.56106e-17
8791.51470 1.55280e-17
8793.51450 1.56301e-17
8795.51430 1.53685e-17
8797.51410 1.42188e-17
8799.50380 1.50031e-17
8801.50360 1.51013e-17
8803.50340 1.46330e-17
8805.50320 1.45403e-17
8807.49290 1.41969e-17
8809.49270 1.41140e-17
8811.49250 1.42441e-17
8813.49230 1.40875e-17
8815.48200 1.39539e-17
8817.48180 1.37705e-17
8819.48160 1.42700e-17
8821.48140 1.48321e-17
8823.47110 1.42944e-17
8825.47090 1.44215e-17
8827.47070 1.43545e-17
8829.47050 1.45840e-17
8831.46020 1.44683e-17
8833.46000 1.39707e-17
8835.45980 1.40551e-17
8837.45960 1.37844e-17
8839.44930 1.40001e-17
8841.44910 1.35632e-17
8843.44890 1.39215e-17
8845.44870 1.35794e-17
8847.43840 1.31700e-17
8849.43820 1.31859e-17
8851.43800 1.33003e-17
8853.43780 1.33060e-17
8855.43760 1.33933e-17
8857.42730 1.33612e-17
8859.42710 1.34282e-17
8861.42690 1.35446e-17
8863.42670 1.34807e-17
8865.41640 1.34619e-17
8867.41620 1.36884e-17
8869.41600 1.32884e-17
8871.41580 1.34003e-17
8873.40550 1.34841e-17
8875.40530 1.36144e-17
8877.40510 1.36575e-17
8879.40490 1.33496e-17
8881.39460 1.34114e-17
8883.39440 1.33012e-17
8885.39420 1.31169e-17
8887.39400 1.29303e-17
8889.39380 1.28346e-17
8891.38350 1.26055e-17
8893.38330 1.30340e-17
8895.38310 1.30398e-17
8897.38290 1.26367e-17
8899.37260 1.31813e-17
8901.37240 1.26314e-17
8903.37220 1.22842e-17
8905.37200 1.24132e-17
8907.36170 1.30056e-17
8909.36150 1.27915e-17
8911.36130 1.25102e-17
8913.36110 1.30418e-17
8915.35080 1.31028e-17
8917.35060 1.25607e-17
8919.35040 1.22392e-17
8921.35020 1.26337e-17
8923.33990 1.27646e-17
8925.33970 1.24597e-17
8927.33950 1.23370e-17
8929.33930 1.20999e-17
8931.32900 1.18878e-17
8933.32880 1.19697e-17
8935.32860 1.17266e-17
8937.32840 1.16625e-17
8939.32820 1.15105e-17
8941.31790 1.14662e-17
8943.31770 1.14075e-17
8945.31750 1.11642e-17
8947.31730 1.11849e-17
8949.30700 1.13261e-17
8951.30680 1.13525e-17
8953.30660 1.13262e-17
8955.30640 1.17043e-17
8957.29610 1.14901e-17
8959.29590 1.14975e-17
8961.29570 1.11770e-17
8963.29550 1.14647e-17
8965.28520 1.15210e-17
8967.28500 1.16922e-17
8969.28480 1.14050e-17
8971.28460 1.12666e-17
8973.27430 1.08483e-17
8975.27410 1.12491e-17
8977.27390 1.16377e-17
8979.27370 1.08640e-17
8981.26340 1.11158e-17
8983.26320 1.10724e-17
8985.26300 1.07256e-17
8987.26280 1.01064e-17
8989.25250 1.12907e-17
8991.25230 1.06464e-17
8993.25210 1.10093e-17
8995.25190 1.10016e-17
8997.25170 1.16505e-17
8999.24140 1.07394e-17
9001.24120 1.05483e-17
9003.24100 1.04547e-17
9005.24080 1.09517e-17
9007.23050 1.13678e-17
9009.23030 1.17188e-17
9011.23010 1.10773e-17
9013.22990 1.13294e-17
9015.21960 1.07626e-17
9017.21940 1.08442e-17
9019.21920 1.12903e-17
9021.21900 1.10960e-17
9023.20870 1.11639e-17
9025.20850 1.12838e-17
9027.20830 1.11743e-17
9029.20810 1.09435e-17
9031.19780 1.08624e-17
9033.19760 1.10071e-17
9035.19740 1.10439e-17
9037.19720 1.10255e-17
9039.18690 1.07284e-17
9041.18670 1.04279e-17
9043.18650 1.07534e-17
9045.18630 1.07778e-17
9047.17600 1.04845e-17
9049.17580 1.06861e-17
9051.17560 1.09987e-17
9053.17540 1.08653e-17
9055.16510 1.12312e-17
9057.16490 1.06916e-17
9059.16470 1.06773e-17
9061.16450 1.14726e-17
9063.16430 1.15403e-17
9065.15400 1.15937e-17
9067.15380 1.10889e-17
9069.15360 1.08977e-17
9071.15340 1.15101e-17
9073.14310 1.14519e-17
9075.14290 1.18549e-17
9077.14270 1.16858e-17
9079.14250 1.18437e-17
9081.13220 1.11085e-17
9083.13200 1.15958e-17
9085.13180 1.10458e-17
9087.13160 1.11077e-17
9089.12130 1.17931e-17
9091.12110 1.12877e-17
9093.12090 1.09113e-17
9095.12070 1.12908e-17
9097.11040 1.09794e-17
9099.11020 1.08763e-17
9101.11000 1.14260e-17
9103.10980 1.17782e-17
9105.10960 1.13108e-17
9107.09930 1.21661e-17
9109.09910 1.21722e-17
9111.09890 1.18391e-17
9113.09870 1.13648e-17
9115.08840 1.08768e-17
9117.08820 1.07265e-17
9119.08800 1.18302e-17
9121.08780 1.20980e-17
9123.07750 1.20399e-17
9125.07730 1.17404e-17
9127.07710 1.17617e-17
9129.07690 1.16055e-17
9131.06660 1.20266e-17
9133.06640 1.19016e-17
9135.06620 1.10153e-17
9137.06600 1.13779e-17
9139.05570 1.20604e-17
9141.05550 1.18993e-17
9143.05530 1.19843e-17
9145.05510 1.14285e-17
9147.05490 1.13242e-17
9149.04460 1.09263e-17
9151.04440 1.09993e-17
9153.04420 1.11581e-17
9155.04400 1.12978e-17
9157.03370 1.17926e-17
9159.03350 1.20571e-17
9161.03330 1.32842e-17
9163.03310 1.43602e-17
9165.02280 1.37611e-17
9167.02260 1.26460e-17
9169.02240 1.20141e-17
9171.02220 1.15174e-17
9173.01190 1.10137e-17
9175.01170 1.07637e-17
9177.01150 1.13932e-17
9179.01130 1.18552e-17
9181.00100 1.09658e-17
9183.00080 1.05382e-17
9185.00060 1.10888e-17
9187.00040 1.14537e-17
9188.99010 1.12584e-17
9190.98990 1.09481e-17
9192.98970 1.07030e-17
9194.98950 1.07845e-17
9196.97920 1.10557e-17
9198.97900 1.06247e-17
9200.97880 1.06390e-17
9202.97860 1.13608e-17
9204.96830 1.11958e-17
9206.96810 1.00280e-17
9208.96790 1.07457e-17
9210.96770 1.04925e-17
9212.96750 1.02612e-17
9214.95720 1.08397e-17
9216.95700 1.05739e-17
9218.95680 1.01020e-17
9220.95660 1.04332e-17
9222.94630 1.03790e-17
9224.94610 1.02570e-17
9226.94590 1.07035e-17
9228.94570 1.00556e-17
9230.93540 1.06107e-17
9232.93520 1.07015e-17
9234.93500 1.03553e-17
9236.93480 1.03609e-17
9238.92450 1.03787e-17
9240.92430 1.02213e-17
9242.92410 1.04354e-17
9244.92390 1.03779e-17
9246.91360 1.02521e-17
9248.91340 1.02985e-17
9250.91320 1.01451e-17
9252.91300 1.00409e-17
9254.90270 9.52563e-18
9256.90250 9.62708e-18
9258.90230 9.58000e-18
9260.90210 9.56709e-18
9262.90190 9.70911e-18
9264.89160 9.90010e-18
9266.89140 9.74774e-18
9268.89120 9.66119e-18
9270.89100 9.59815e-18
9272.88070 9.73204e-18
9274.88050 9.46865e-18
9276.88030 8.86824e-18
9278.88010 9.34394e-18
9280.86980 9.78545e-18
9282.86960 9.31370e-18
9284.86940 9.15325e-18
9286.86920 9.50115e-18
9288.85890 9.71362e-18
9290.85870 9.36447e-18
9292.85850 9.82146e-18
9294.85830 9.10845e-18
9296.84800 9.45485e-18
9298.84780 9.23501e-18
9300.84760 9.45511e-18
9302.84740 9.37250e-18
9304.83710 9.45547e-18
9306.83690 8.80288e-18
9308.83670 8.94234e-18
9310.83650 9.59120e-18
9312.82620 9.41907e-18
9314.82600 8.85062e-18
9316.82580 8.23318e-18
9318.82560 9.03134e-18
9320.82540 9.46483e-18
9322.81510 8.43024e-18
9324.81490 8.09996e-18
9326.81470 8.97773e-18
9328.81450 8.81087e-18
9330.80420 8.06131e-18
9332.80400 7.27406e-18
9334.80380 7.56593e-18
9336.80360 8.15057e-18
9338.79330 7.96955e-18
9340.79310 8.09117e-18
9342.79290 7.98963e-18
9344.79270 9.36844e-18
9346.78240 1.04759e-17
9348.78220 9.67902e-18
9350.78200 8.14689e-18
9352.78180 7.02823e-18
9354.78160 7.72571e-18
9356.77130 8.40811e-18
9358.77110 9.15948e-18
9360.77090 9.58156e-18
9362.77070 8.51686e-18
9364.76040 7.63532e-18
9366.76020 7.94716e-18
9368.76000 7.78409e-18
9370.75980 7.47705e-18
9372.74950 8.83229e-18
9374.74930 7.96870e-18
9376.74910 7.27459e-18
9378.74890 7.21947e-18
9380.73860 8.08966e-18
9382.73840 9.51053e-18
9384.73820 8.71960e-18
9386.73800 7.78886e-18
9388.72770 8.38282e-18
9390.72750 8.00542e-18
9392.72730 8.41748e-18
9394.72710 7.79682e-18
9396.71680 7.59647e-18
9398.71660 7.83302e-18
9400.71640 7.22900e-18
9402.71620 8.05059e-18
9404.70590 7.80305e-18
9406.70570 7.39742e-18
9408.70550 7.14758e-18
9410.70530 8.07637e-18
9412.69500 8.32430e-18
9414.69480 7.50715e-18
9416.69460 7.90399e-18
9418.69440 8.27723e-18
9420.69420 7.56324e-18
9422.68390 7.84892e-18
9424.68370 7.92148e-18
9426.68350 7.61741e-18
9428.68330 7.65685e-18
9430.67300 9.39354e-18
9432.67280 8.99761e-18
9434.67260 8.35546e-18
