# wavelength flux
3510.00328 2.98379e-18
3511.99712 4.97100e-18
3514.00108 5.66369e-18
3516.00504 2.41423e-18
3517.99887 4.16780e-18
3520.00283 1.71526e-18
3521.99667 2.96182e-18
3524.00063 3.61258e-18
3526.00459 4.66181e-18
3527.99842 3.48127e-18
3530.00238 2.30106e-18
3531.99622 1.12118e-18
3534.00018 1.12102e-18
3536.00413 1.83792e-18
3537.99797 4.59686e-18
3540.00193 2.42750e-18
3541.99577 2.95214e-18
3543.99972 5.51358e-18
3546.00368 2.23715e-18
3547.99752 8.10442e-20
3550.00148 1.45086e-18
3551.99531 2.28084e-18
3553.99927 5.12770e-18
3556.00323 4.89543e-18
3557.99707 1.44246e-18
3560.00102 1.19973e-18
3562.00498 2.85846e-18
3563.99882 -7.96353e-20
3566.00278 5.06563e-18
3567.99661 5.06993e-18
3570.00057 1.88718e-18
3572.00453 3.44378e-18
3573.99837 3.68699e-18
3576.00232 2.85832e-18
3577.99616 2.60324e-18
3580.00012 4.31037e-18
3582.00408 5.57133e-18
3583.99791 2.43047e-18
3586.00187 1.33655e-18
3587.99571 4.10181e-18
3589.99967 2.64487e-18
3592.00363 2.52876e-18
3593.99746 3.64794e-18
3596.00142 1.61079e-18
3597.99526 3.40363e-18
3599.99922 3.88629e-18
3602.00317 5.93615e-18
3603.99701 2.16467e-18
3606.00097 6.05525e-18
3608.00493 3.83578e-18
3609.99876 3.88859e-18
3612.00272 3.45105e-18
3613.99656 4.94981e-18
3616.00052 5.65152e-18
3618.00448 4.78919e-18
3619.99831 3.94457e-18
3622.00227 3.81653e-18
3623.99611 6.14709e-18
3626.00007 3.21246e-18
3628.00402 4.12322e-18
3629.99786 1.90756e-18
3632.00182 3.30143e-18
3633.99566 3.97563e-18
3635.99961 3.46993e-18
3638.00357 3.40835e-18
3639.99741 5.43057e-18
3642.00137 3.45790e-18
3643.99520 3.03250e-18
3645.99916 5.14550e-18
3648.00312 3.44647e-18
3649.99696 1.19598e-18
3652.00091 3.64056e-18
3654.00487 3.59673e-18
3655.99871 3.55291e-18
3658.00267 3.55250e-18
3659.99650 2.61417e-18
3662.00046 1.67608e-18
3664.00442 7.38211e-19
3665.99826 7.38126e-19
3668.00221 3.11573e-18
3669.99605 3.24376e-18
3672.00001 3.91668e-18
3674.00397 5.06204e-18
3675.99780 4.41846e-18
3678.00176 2.59679e-18
3679.99560 1.61681e-18
3681.99956 4.26710e-18
3684.00352 2.88594e-18
3685.99735 3.31230e-18
3688.00131 4.01929e-18
3689.99515 4.28899e-18
3691.99911 3.72880e-18
3694.00306 3.54094e-18
3695.99690 4.95227e-18
3698.00086 5.85649e-18
3700.00482 3.62305e-18
3701.99865 3.39355e-18
3704.00261 1.85099e-18
3705.99645 4.17856e-18
3708.00041 2.66907e-18
3710.00437 3.98533e-18
3711.99820 3.20540e-18
3714.00216 3.27872e-18
3715.99600 4.10346e-18
3717.99996 5.14722e-18
3720.00391 2.98427e-18
3721.99775 1.92751e-18
3724.00171 3.52794e-18
3725.99554 2.04079e-18
3727.99950 3.80217e-18
3730.00346 3.11579e-18
3731.99730 3.86015e-18
3734.00126 2.70662e-18
3735.99509 4.78698e-18
3737.99905 2.87645e-18
3740.00301 3.84350e-18
3741.99685 4.13072e-18
3744.00080 4.09583e-18
3746.00476 4.21021e-18
3747.99860 3.46361e-18
3750.00256 3.79265e-18
3751.99639 3.57547e-18
3754.00035 2.95451e-18
3756.00431 2.89329e-18
3757.99815 4.09453e-18
3760.00211 3.99870e-18
3761.99594 3.75652e-18
3763.99990 4.83021e-18
3766.00386 4.88322e-18
3767.99770 3.19887e-18
3770.00165 3.71341e-18
3771.99549 4.62137e-18
3773.99945 3.76716e-18
3776.00341 3.44046e-18
3777.99724 3.07302e-18
3780.00120 5.12112e-18
3781.99504 6.15070e-18
3783.99900 4.17467e-18
3786.00295 3.92491e-18
3787.99679 3.05574e-18
3790.00075 4.10474e-18
3792.00471 4.96970e-18
3793.99854 5.10796e-18
3796.00250 3.98473e-18
3797.99634 4.81083e-18
3800.00030 3.97027e-18
3802.00426 3.50448e-18
3803.99809 4.24251e-18
3806.00205 5.34129e-18
3807.99589 3.60029e-18
3809.99984 3.54946e-18
3812.00380 3.70352e-18
3813.99764 4.08143e-18
3816.00160 4.68288e-18
3817.99543 4.92133e-18
3819.99939 4.36425e-18
3822.00335 4.61928e-18
3823.99719 3.71026e-18
3826.00115 4.43872e-18
3828.00510 3.28862e-18
3829.99894 3.78567e-18
3832.00290 4.41504e-18
3833.99674 4.46937e-18
3836.00069 4.85305e-18
3838.00465 5.24158e-18
3839.99849 4.47103e-18
3842.00245 4.56887e-18
3843.99628 5.02555e-18
3846.00024 5.17848e-18
3848.00420 5.77765e-18
3849.99804 4.58686e-18
3852.00199 5.05318e-18
3853.99583 4.80730e-18
3855.99979 5.64807e-18
3858.00375 4.46800e-18
3859.99759 4.19949e-18
3862.00154 4.30746e-18
3863.99538 3.75654e-18
3865.99934 5.37646e-18
3868.00330 4.39430e-18
3869.99713 6.07836e-18
3872.00109 5.69989e-18
3874.00505 4.71436e-18
3875.99889 6.27293e-18
3878.00284 5.82951e-18
3879.99668 5.43066e-18
3882.00064 6.08449e-18
3884.00460 6.27189e-18
3885.99843 6.25911e-18
3888.00239 7.20729e-18
3889.99623 6.27441e-18
3892.00019 5.52567e-18
3894.00414 6.45896e-18
3895.99798 5.14677e-18
3898.00194 5.37300e-18
3899.99578 6.66815e-18
3901.99973 6.45963e-18
3904.00369 4.97755e-18
3905.99753 4.95324e-18
3908.00149 3.94870e-18
3909.99532 5.54404e-18
3911.99928 7.19549e-18
3914.00324 5.95771e-18
3915.99708 6.38562e-18
3918.00104 5.48962e-18
3920.00499 5.81107e-18
3921.99883 5.09858e-18
3924.00279 6.29873e-18
3925.99663 7.02621e-18
3928.00058 6.58243e-18
3930.00454 6.80170e-18
3931.99838 5.89466e-18
3934.00234 5.91634e-18
3935.99617 5.52176e-18
3938.00013 4.83925e-18
3940.00409 6.31488e-18
3941.99793 6.12016e-18
3944.00189 7.27695e-18
3945.99572 5.47105e-18
3947.99968 7.10758e-18
3950.00364 7.33316e-18
3951.99748 5.67306e-18
3954.00143 6.28373e-18
3955.99527 6.34739e-18
3957.99923 6.26938e-18
3960.00319 6.27861e-18
3961.99702 5.61845e-18
3964.00098 5.01086e-18
3966.00494 5.57920e-18
3967.99878 5.10052e-18
3970.00273 6.55370e-18
3971.99657 5.97028e-18
3974.00053 6.63859e-18
3976.00449 6.55034e-18
3977.99832 5.77144e-18
3980.00228 5.81157e-18
3981.99612 5.26614e-18
3984.00008 5.96971e-18
3986.00403 5.84655e-18
3987.99787 5.62375e-18
3990.00183 5.36053e-18
3991.99567 5.83326e-18
3993.99962 6.07882e-18
3996.00358 4.56767e-18
3997.99742 4.95583e-18
4000.00138 7.34902e-18
4001.99521 5.19279e-18
4003.99917 6.87596e-18
4006.00313 5.36195e-18
4007.99697 6.44082e-18
4010.00093 6.52486e-18
4012.00488 6.34044e-18
4013.99872 5.17901e-18
4016.00268 6.30433e-18
4017.99652 4.96340e-18
4020.00047 5.06952e-18
4022.00443 6.79379e-18
4023.99827 5.91485e-18
4026.00223 7.05127e-18
4027.99606 7.33414e-18
4030.00002 6.65466e-18
4032.00398 6.40293e-18
4033.99782 5.41425e-18
4036.00178 6.00219e-18
4037.99561 7.46522e-18
4039.99957 6.57183e-18
4042.00353 6.25479e-18
4043.99737 5.44544e-18
4046.00132 4.63622e-18
4047.99516 4.63588e-18
4049.99912 4.34617e-18
4052.00308 4.96502e-18
4053.99691 5.28823e-18
4056.00087 5.65177e-18
4058.00483 5.59838e-18
4059.99867 5.87258e-18
4062.00262 5.20120e-18
4063.99646 5.41049e-18
4066.00042 6.40609e-18
4068.00438 6.10325e-18
4069.99821 4.93401e-18
4072.00217 4.42566e-18
4073.99601 6.14132e-18
4075.99997 5.69518e-18
4078.00392 4.41670e-18
4079.99776 5.09714e-18
4082.00172 5.33929e-18
4083.99556 5.86341e-18
4085.99951 5.95439e-18
4088.00347 5.55299e-18
4089.99731 5.52233e-18
4092.00127 6.30795e-18
4093.99510 5.51089e-18
4095.99906 5.22439e-18
4098.00302 4.94928e-18
4099.99686 5.86324e-18
4102.00082 4.88028e-18
4104.00477 6.23654e-18
4105.99861 6.71021e-18
4108.00257 5.74746e-18
4109.99641 5.01917e-18
4112.00036 5.88843e-18
4114.00432 5.27684e-18
4115.99816 5.38195e-18
4118.00212 6.02117e-18
4119.99595 6.49054e-18
4121.99991 5.98039e-18
4124.00387 6.52957e-18
4125.99771 5.98395e-18
4128.00166 6.44074e-18
4129.99550 5.43783e-18
4131.99946 6.38667e-18
4134.00342 5.91077e-18
4135.99726 5.21133e-18
4138.00121 5.74809e-18
4139.99505 5.22862e-18
4141.99901 6.47204e-18
4144.00297 6.42177e-18
4145.99680 6.62119e-18
4148.00076 6.85601e-18
4150.00472 5.31310e-18
4151.99856 6.08637e-18
4154.00251 5.68066e-18
4155.99635 7.01177e-18
4158.00031 7.08491e-18
4160.00427 6.17057e-18
4161.99810 7.43743e-18
4164.00206 6.82372e-18
4165.99590 5.94846e-18
4167.99986 5.42550e-18
4170.00382 5.12442e-18
4171.99765 5.86502e-18
4174.00161 6.33648e-18
4175.99545 6.71610e-18
4177.99941 6.05398e-18
4180.00336 7.40748e-18
4181.99720 5.57841e-18
4184.00116 5.27153e-18
4186.00512 6.40767e-18
4187.99895 6.55953e-18
4190.00291 6.44332e-18
4191.99675 7.12994e-18
4194.00071 6.12335e-18
4196.00466 6.37070e-18
4197.99850 6.89699e-18
4200.00246 5.61014e-18
4201.99630 5.89974e-18
4204.00025 7.07885e-18
4206.00421 6.45975e-18
4207.99805 7.03455e-18
4210.00201 6.26787e-18
4211.99584 6.17506e-18
4213.99980 6.48937e-18
4216.00376 6.20894e-18
4217.99760 5.97039e-18
4220.00155 6.09727e-18
4221.99539 5.71972e-18
4223.99935 6.44072e-18
4226.00331 6.99786e-18
4227.99714 6.32785e-18
4230.00110 6.34446e-18
4232.00506 6.00530e-18
4233.99890 6.24574e-18
4236.00286 6.16994e-18
4237.99669 6.66576e-18
4240.00065 5.78460e-18
4242.00461 6.63321e-18
4243.99845 6.32506e-18
4246.00240 6.56488e-18
4247.99624 7.77517e-18
4250.00020 6.62307e-18
4252.00416 6.41579e-18
4253.99799 5.93555e-18
4256.00195 5.65811e-18
4257.99579 6.24862e-18
4259.99975 7.16714e-18
4262.00371 6.36023e-18
4263.99754 6.90852e-18
4266.00150 7.11356e-18
4267.99534 6.31213e-18
4269.99929 6.45065e-18
4272.00325 5.76729e-18
4273.99709 5.81001e-18
4276.00105 6.83094e-18
4277.99489 6.63988e-18
4279.99884 6.87303e-18
4282.00280 5.86203e-18
4283.99664 5.89427e-18
4286.00060 6.32776e-18
4288.00455 6.24192e-18
4289.99839 6.42275e-18
4292.00235 5.83259e-18
4293.99619 6.40516e-18
4296.00014 6.50043e-18
4298.00410 5.84436e-18
4299.99794 5.69950e-18
4302.00190 6.31750e-18
4303.99573 6.41925e-18
4305.99969 5.94185e-18
4308.00365 6.61992e-18
4309.99749 7.05890e-18
4312.00144 6.08795e-18
4313.99528 5.80933e-18
4315.99924 6.34565e-18
4318.00320 6.52348e-18
4319.99704 6.28223e-18
4322.00099 6.01432e-18
4324.00495 6.28421e-18
4325.99879 5.57398e-18
4328.00275 6.85647e-18
4329.99658 6.32120e-18
4332.00054 6.46741e-18
4334.00450 5.89492e-18
4335.99834 6.22771e-18
4338.00229 6.31980e-18
4339.99613 7.15355e-18
4342.00009 6.72049e-18
4344.00405 5.83295e-18
4345.99788 5.90355e-18
4348.00184 5.89793e-18
4349.99568 6.67736e-18
4351.99964 7.26250e-18
4354.00360 5.45262e-18
4355.99743 5.75917e-18
4358.00139 7.39188e-18
4360.00535 6.90915e-18
4361.99919 6.32267e-18
4364.00314 6.08418e-18
4365.99698 5.32309e-18
4368.00094 7.05340e-18
4370.00490 7.09978e-18
4371.99873 6.88579e-18
4374.00269 6.64080e-18
4375.99653 6.23636e-18
4378.00049 6.89453e-18
4380.00444 6.53582e-18
4381.99828 6.80634e-18
4384.00224 7.04445e-18
4385.99608 7.05604e-18
4388.00003 6.97149e-18
4390.00399 6.61015e-18
4391.99783 6.37002e-18
4394.00179 7.50862e-18
4395.99562 7.17990e-18
4397.99958 8.05450e-18
4400.00354 7.18227e-18
4401.99738 6.99005e-18
4404.00133 7.24552e-18
4405.99517 6.85861e-18
4407.99913 6.90921e-18
4410.00309 6.69165e-18
4411.99693 8.57004e-18
4414.00088 8.20128e-18
4416.00484 7.17920e-18
4417.99868 7.08278e-18
4420.00264 7.48870e-18
4421.99647 8.07600e-18
4424.00043 8.33574e-18
4426.00439 8.59065e-18
4427.99823 7.74867e-18
4430.00218 6.83744e-18
4431.99602 7.67897e-18
4433.99998 8.33121e-18
4436.00394 7.85102e-18
4437.99777 8.39163e-18
4440.00173 8.70548e-18
4441.99557 8.58803e-18
4443.99953 8.75839e-18
4446.00349 8.23245e-18
4447.99732 8.12262e-18
4450.00128 8.45652e-18
4451.99512 9.01415e-18
4453.99907 8.81776e-18
4456.00303 7.84477e-18
4457.99687 9.12206e-18
4460.00083 7.92862e-18
4462.00479 8.60531e-18
4463.99862 8.91850e-18
4466.00258 9.32155e-18
4467.99642 9.97289e-18
4470.00038 9.80118e-18
4472.00433 8.38457e-18
4473.99817 8.72940e-18
4476.00213 8.64953e-18
4477.99597 8.74063e-18
4479.99992 8.88091e-18
4482.00388 9.05145e-18
4483.99772 8.59017e-18
4486.00168 8.21233e-18
4487.99551 8.94807e-18
4489.99947 9.59595e-18
4492.00343 9.01864e-18
4493.99727 1.09768e-17
4496.00122 1.01058e-17
4498.00518 9.60204e-18
4499.99902 9.62599e-18
4502.00298 1.09537e-17
4503.99681 1.02052e-17
4506.00077 1.04030e-17
4508.00473 9.73554e-18
4509.99857 9.26753e-18
4512.00253 9.95658e-18
4513.99636 1.05132e-17
4516.00032 1.03580e-17
4518.00428 1.00029e-17
4519.99812 1.06516e-17
4522.00207 1.09244e-17
4523.99591 1.03340e-17
4525.99987 1.01628e-17
4528.00383 1.05754e-17
4529.99766 1.05465e-17
4532.00162 1.00710e-17
4533.99546 1.11580e-17
4535.99942 1.04643e-17
4538.00338 1.12938e-17
4539.99721 9.72405e-18
4542.00117 1.09400e-17
4543.99501 1.11258e-17
4545.99896 1.08293e-17
4548.00292 1.03460e-17
4549.99676 1.05682e-17
4552.00072 1.08765e-17
4554.00468 1.10591e-17
4555.99851 9.97891e-18
4558.00247 1.03252e-17
4559.99631 9.58343e-18
4562.00027 1.02382e-17
4564.00422 1.05458e-17
4565.99806 1.02574e-17
4568.00202 1.03339e-17
4569.99586 9.52121e-18
4571.99981 9.40335e-18
4574.00377 1.02764e-17
4575.99761 9.90053e-18
4578.00157 9.37056e-18
4579.99540 1.02483e-17
4581.99936 1.01886e-17
4584.00332 1.02012e-17
4585.99716 9.93903e-18
4588.00112 9.83679e-18
4589.99495 1.03962e-17
4591.99891 1.04522e-17
4594.00287 1.03448e-17
4595.99671 1.01339e-17
4598.00066 9.80183e-18
4600.00462 1.03599e-17
4601.99846 1.02377e-17
4604.00242 1.06908e-17
4605.99625 1.03350e-17
4608.00021 9.42172e-18
4610.00417 1.04598e-17
4611.99801 9.76604e-18
4614.00196 9.91058e-18
4615.99580 1.00588e-17
4617.99976 9.90463e-18
4620.00372 9.33488e-18
4621.99755 1.02957e-17
4624.00151 1.03323e-17
4625.99535 9.94850e-18
4627.99931 9.38649e-18
4630.00326 9.51764e-18
4631.99710 1.02412e-17
4634.00106 9.72684e-18
4636.00502 9.51040e-18
4637.99885 9.47288e-18
4640.00281 9.45845e-18
4641.99665 1.03434e-17
4644.00061 9.57576e-18
4646.00457 9.89905e-18
4647.99840 9.62851e-18
4650.00236 9.09857e-18
4651.99620 9.09929e-18
4654.00016 1.01419e-17
4656.00411 9.48345e-18
4657.99795 9.20861e-18
4660.00191 9.65739e-18
4661.99575 8.85918e-18
4663.99970 9.44171e-18
4666.00366 9.94357e-18
4667.99750 9.75254e-18
4670.00146 9.18541e-18
4671.99529 9.07324e-18
4673.99925 9.27983e-18
4676.00321 9.60741e-18
4677.99705 9.69798e-18
4680.00101 9.63644e-18
4682.00496 9.37696e-18
4683.99880 9.19425e-18
4686.00276 8.88054e-18
4687.99659 9.59632e-18
4690.00055 9.73822e-18
4692.00451 9.61961e-18
4693.99835 1.00960e-17
4696.00231 1.01563e-17
4697.99614 9.98963e-18
4700.00010 9.61539e-18
4702.00406 9.76259e-18
4703.99790 9.18433e-18
4706.00185 9.04809e-18
4707.99569 9.94072e-18
4709.99965 9.64894e-18
4712.00361 9.53622e-18
4713.99744 8.85275e-18
4716.00140 9.05488e-18
4717.99524 9.62678e-18
4719.99920 8.98555e-18
4722.00316 8.66947e-18
4723.99699 9.01966e-18
4726.00095 8.96616e-18
4728.00491 8.73447e-18
4729.99874 9.96037e-18
4732.00270 8.40680e-18
4733.99654 8.28851e-18
4736.00050 8.94388e-18
4738.00446 1.00316e-17
4739.99829 9.90425e-18
4742.00225 9.63540e-18
4743.99609 8.37585e-18
4746.00005 8.87922e-18
4748.00400 8.78433e-18
4749.99784 9.30600e-18
4752.00180 9.41070e-18
4753.99564 8.66973e-18
4755.99959 8.95301e-18
4758.00355 8.81963e-18
4759.99739 8.09550e-18
4762.00135 8.00780e-18
4763.99518 8.60273e-18
4765.99914 8.36283e-18
4768.00310 8.46696e-18
4769.99694 8.49585e-18
4772.00090 9.38578e-18
4774.00485 9.14568e-18
4775.99869 9.91223e-18
4778.00265 9.28730e-18
4779.99649 9.43365e-18
4782.00044 9.05334e-18
4784.00440 9.21666e-18
4785.99824 9.56993e-18
4788.00220 9.39340e-18
4789.99603 1.01520e-17
4791.99999 8.82543e-18
4794.00395 8.95541e-18
4795.99779 9.82745e-18
4798.00174 9.14736e-18
4799.99558 9.48985e-18
4801.99954 8.84406e-18
4804.00350 9.17679e-18
4805.99733 9.55012e-18
4808.00129 1.01901e-17
4810.00525 1.00079e-17
4811.99909 8.90360e-18
4814.00304 8.74043e-18
4815.99688 9.15845e-18
4818.00084 9.85934e-18
4820.00480 9.27040e-18
4821.99863 9.09167e-18
4824.00259 9.42394e-18
4825.99643 9.68095e-18
4828.00039 9.30768e-18
4830.00435 8.88040e-18
4831.99818 9.10438e-18
4834.00214 1.03053e-17
4835.99598 1.01644e-17
4837.99994 9.71945e-18
4840.00389 9.47610e-18
4841.99773 9.70348e-18
4844.00169 9.67608e-18
4845.99553 9.43534e-18
4847.99948 9.14526e-18
4850.00344 8.86863e-18
4851.99728 9.13280e-18
4854.00124 9.82680e-18
4855.99507 9.72456e-18
4857.99903 9.66570e-18
4860.00299 9.48538e-18
4861.99683 9.72409e-18
4864.00079 9.07526e-18
4866.00474 9.14462e-18
4867.99858 8.92811e-18
4870.00254 9.96721e-18
4871.99637 9.01547e-18
4874.00033 9.43825e-18
4876.00429 9.71259e-18
4877.99813 9.10219e-18
4880.00209 8.92670e-18
4881.99592 9.07473e-18
4883.99988 9.57455e-18
4886.00384 9.39653e-18
4887.99768 8.73831e-18
4890.00163 8.49445e-18
4891.99547 9.19882e-18
4893.99943 8.48444e-18
4896.00339 8.39225e-18
4897.99722 9.16733e-18
4900.00118 8.92390e-18
4902.00514 8.74770e-18
4903.99898 8.54361e-18
4906.00294 8.58843e-18
4907.99677 8.73461e-18
4910.00073 8.75868e-18
4912.00469 9.09641e-18
4913.99852 8.82698e-18
4916.00248 8.68824e-18
4917.99632 9.11351e-18
4920.00028 8.98083e-18
4922.00424 8.99208e-18
4923.99807 8.58049e-18
4926.00203 8.78582e-18
4927.99587 9.28143e-18
4929.99983 7.91302e-18
4932.00378 8.59123e-18
4933.99762 8.96088e-18
4936.00158 9.35109e-18
4937.99542 8.86642e-18
4939.99937 9.23326e-18
4942.00333 8.92318e-18
4943.99717 9.07596e-18
4946.00113 8.84517e-18
4948.00509 8.46094e-18
4949.99892 8.85157e-18
4952.00288 8.96209e-18
4953.99672 8.91628e-18
4956.00068 8.40127e-18
4958.00463 9.64923e-18
4959.99847 9.23416e-18
4962.00243 1.01537e-17
4963.99626 9.85388e-18
4966.00022 9.55483e-18
4968.00418 9.58398e-18
4969.99802 9.47701e-18
4972.00198 8.76554e-18
4973.99581 9.65084e-18
4975.99977 9.44091e-18
4978.00373 9.66609e-18
4979.99757 9.85640e-18
4982.00152 9.27972e-18
4983.99536 8.77852e-18
4985.99932 9.29380e-18
4988.00328 1.00495e-17
4989.99711 9.67873e-18
4992.00107 8.83222e-18
4993.99491 9.27863e-18
4995.99887 9.96870e-18
4998.00282 1.01149e-17
4999.99666 9.92906e-18
5002.00062 9.95943e-18
5004.00458 9.06349e-18
5005.99842 9.49879e-18
5008.00237 1.00140e-17
5009.99621 9.65879e-18
5012.00017 9.24936e-18
5014.00413 9.42394e-18
5015.99796 9.57302e-18
5018.00192 9.49188e-18
5019.99576 9.13667e-18
5021.99972 9.30090e-18
5024.00367 9.58088e-18
5025.99751 9.16930e-18
5028.00147 8.93507e-18
5029.99531 9.00217e-18
5031.99926 9.47864e-18
5034.00322 9.40108e-18
5035.99706 9.71503e-18
5038.00102 9.24990e-18
5040.00497 9.55571e-18
5041.99881 9.63437e-18
5044.00277 9.71917e-18
5045.99661 9.13824e-18
5048.00056 9.77644e-18
5050.00452 9.51045e-18
5051.99836 9.08028e-18
5054.00232 9.86822e-18
5055.99615 9.08769e-18
5058.00011 9.66528e-18
5060.00407 9.57216e-18
5061.99791 9.77205e-18
5064.00187 9.95140e-18
5065.99570 9.46644e-18
5067.99966 9.09411e-18
5070.00362 9.97019e-18
5071.99746 1.04180e-17
5074.00141 9.94512e-18
5075.99525 9.87191e-18
5077.99921 1.05505e-17
5080.00317 1.01258e-17
5081.99700 1.06642e-17
5084.00096 1.04844e-17
5086.00492 1.09702e-17
5087.99876 1.02545e-17
5090.00271 1.05886e-17
5091.99655 1.12048e-17
5094.00051 1.05190e-17
5096.00447 1.04667e-17
5097.99831 1.09776e-17
5100.00226 1.10851e-17
5101.99610 1.11970e-17
5104.00006 1.16299e-17
5106.00402 1.07950e-17
5107.99785 1.09875e-17
5110.00181 1.14287e-17
5111.99565 1.11004e-17
5113.99961 1.17555e-17
5116.00356 1.17490e-17
5117.99740 1.13848e-17
5120.00136 1.14953e-17
5121.99520 1.13333e-17
5123.99915 1.16902e-17
5126.00311 1.19290e-17
5127.99695 1.19365e-17
5130.00091 1.21590e-17
5132.00486 1.28073e-17
5133.99870 1.25801e-17
5136.00266 1.26260e-17
5137.99650 1.26288e-17
5140.00046 1.24190e-17
5142.00441 1.21519e-17
5143.99825 1.24241e-17
5146.00221 1.28880e-17
5147.99604 1.21891e-17
5150.00000 1.35127e-17
5152.00396 1.31835e-17
5153.99780 1.22302e-17
5156.00176 1.35238e-17
5157.99559 1.34697e-17
5159.99955 1.35884e-17
5162.00351 1.30275e-17
5163.99735 1.34431e-17
5166.00130 1.26604e-17
5167.99514 1.31184e-17
5169.99910 1.42078e-17
5172.00306 1.29143e-17
5173.99689 1.33420e-17
5176.00085 1.32296e-17
5178.00481 1.38843e-17
5179.99865 1.35357e-17
5182.00261 1.33064e-17
5183.99644 1.40813e-17
5186.00040 1.38885e-17
5188.00436 1.39064e-17
5189.99820 1.38391e-17
5192.00215 1.41185e-17
5193.99599 1.34392e-17
5195.99995 1.40555e-17
5198.00391 1.40705e-17
5199.99774 1.37990e-17
5202.00170 1.43211e-17
5203.99554 1.42833e-17
5205.99950 1.42287e-17
5208.00345 1.40861e-17
5209.99729 1.41595e-17
5212.00125 1.42507e-17
5214.00521 1.43539e-17
5215.99904 1.47126e-17
5218.00300 1.43345e-17
5219.99684 1.39769e-17
5222.00080 1.37749e-17
5224.00475 1.41073e-17
5225.99859 1.37600e-17
5228.00255 1.37120e-17
5229.99639 1.49651e-17
5232.00034 1.40099e-17
5234.00430 1.44935e-17
5235.99814 1.42830e-17
5238.00210 1.41713e-17
5239.99593 1.41071e-17
5241.99989 1.43238e-17
5244.00385 1.44750e-17
5245.99769 1.50865e-17
5248.00165 1.44491e-17
5249.99548 1.47640e-17
5251.99944 1.52250e-17
5254.00340 1.52030e-17
5255.99724 1.52780e-17
5258.00119 1.57171e-17
5260.00515 1.61528e-17
5261.99899 1.53342e-17
5264.00295 1.57118e-17
5265.99678 1.53695e-17
5268.00074 1.50560e-17
5270.00470 1.47345e-17
5271.99854 1.41154e-17
5274.00249 1.46527e-17
5275.99633 1.45059e-17
5278.00029 1.42200e-17
5280.00425 1.52976e-17
5281.99809 1.52237e-17
5284.00204 1.47554e-17
5285.99588 1.50978e-17
5287.99984 1.47354e-17
5290.00380 1.48447e-17
5291.99763 1.56155e-17
5294.00159 1.50912e-17
5295.99543 1.54010e-17
5297.99939 1.55996e-17
5300.00334 1.49756e-17
5301.99718 1.55869e-17
5304.00114 1.59082e-17
5305.99498 1.55420e-17
5307.99893 1.57622e-17
5310.00289 1.61036e-17
5311.99673 1.57303e-17
5314.00069 1.74402e-17
5316.00464 1.57942e-17
5317.99848 1.55125e-17
5320.00244 1.53882e-17
5321.99628 1.60002e-17
5324.00024 1.61115e-17
5326.00419 1.64914e-17
5327.99803 1.64490e-17
5330.00199 1.61222e-17
5331.99582 1.62036e-17
5333.99978 1.57749e-17
5336.00374 1.61174e-17
5337.99758 1.72434e-17
5340.00154 1.69042e-17
5341.99537 1.69796e-17
5343.99933 1.68337e-17
5346.00329 1.72104e-17
5347.99713 1.68816e-17
5350.00108 1.65679e-17
5352.00504 1.63364e-17
5353.99888 1.68419e-17
5356.00284 1.63930e-17
5357.99667 1.56469e-17
5360.00063 1.67977e-17
5362.00459 1.63818e-17
5363.99843 1.68421e-17
5366.00239 1.62449e-17
5367.99622 1.58593e-17
5370.00018 1.57435e-17
5372.00414 1.76081e-17
5373.99798 1.67814e-17
5376.00193 1.68962e-17
5377.99577 1.67926e-17
5379.99973 1.68927e-17
5382.00369 1.69679e-17
5383.99752 1.63687e-17
5386.00148 1.55769e-17
5387.99532 1.78181e-17
5389.99928 1.58250e-17
5392.00323 1.56349e-17
5393.99707 1.60981e-17
5396.00103 1.63514e-17
5398.00499 1.72370e-17
5399.99882 1.64590e-17
5402.00278 1.56745e-17
5403.99662 1.62161e-17
5406.00058 1.65459e-17
5408.00454 1.73397e-17
5409.99837 1.57621e-17
5412.00233 1.60276e-17
5413.99617 1.56712e-17
5416.00012 1.58987e-17
5418.00408 1.68073e-17
5419.99792 1.64610e-17
5422.00188 1.57045e-17
5423.99572 1.49275e-17
5425.99967 1.59415e-17
5428.00363 1.40487e-17
5429.99747 1.51175e-17
5432.00143 1.50830e-17
5433.99526 1.45066e-17
5435.99922 1.62688e-17
5438.00318 1.55395e-17
5439.99702 1.55143e-17
5442.00097 1.51278e-17
5444.00493 1.51349e-17
5445.99877 1.50216e-17
5448.00273 1.52451e-17
5449.99656 1.51607e-17
5452.00052 1.47581e-17
5454.00448 1.54595e-17
5455.99832 1.46186e-17
5458.00227 1.47178e-17
5459.99611 1.46133e-17
5462.00007 1.52784e-17
5464.00403 1.51928e-17
5465.99786 1.54540e-17
5468.00182 1.52394e-17
5469.99566 1.55405e-17
5471.99962 1.50384e-17
5474.00358 1.47428e-17
5475.99741 1.48463e-17
5478.00137 1.50538e-17
5479.99521 1.55391e-17
5481.99917 1.49404e-17
5484.00312 1.43449e-17
5485.99696 1.47299e-17
5488.00092 1.51483e-17
5490.00488 1.42338e-17
5491.99871 1.42590e-17
5494.00267 1.42855e-17
5495.99651 1.44249e-17
5498.00047 1.47019e-17
5500.00443 1.47479e-17
5501.99826 1.46118e-17
5504.00222 1.44930e-17
5505.99606 1.43844e-17
5508.00001 1.42509e-17
5510.00397 1.40411e-17
5511.99781 1.37958e-17
5514.00177 1.37641e-17
5515.99561 1.39955e-17
5517.99956 1.39950e-17
5520.00352 1.38290e-17
5521.99736 1.37276e-17
5524.00132 1.37035e-17
5526.00527 1.37332e-17
5527.99911 1.38548e-17
5530.00307 1.40727e-17
5531.99691 1.40661e-17
5534.00086 1.38241e-17
5536.00482 1.37343e-17
5537.99866 1.37381e-17
5540.00262 1.37501e-17
5541.99645 1.37832e-17
5544.00041 1.37954e-17
5546.00437 1.36346e-17
5547.99821 1.32663e-17
5550.00216 1.32523e-17
5551.99600 1.36141e-17
5553.99996 1.37285e-17
5556.00392 1.35954e-17
5557.99776 1.34415e-17
5560.00171 1.33945e-17
5561.99555 1.33684e-17
5563.99951 1.32085e-17
5566.00347 1.28869e-17
5567.99730 1.27383e-17
5570.00126 1.26400e-17
5571.99510 1.26607e-17
5573.99906 1.29001e-17
5576.00301 1.31284e-17
5577.99685 1.31206e-17
5580.00081 1.29767e-17
5582.00477 1.27900e-17
5583.99860 1.23297e-17
5586.00256 1.22692e-17
5587.99640 1.26213e-17
5590.00036 1.28590e-17
5592.00431 1.28600e-17
5593.99815 1.27636e-17
5596.00211 1.26472e-17
5597.99595 1.24577e-17
5599.99991 1.23614e-17
5602.00386 1.23290e-17
5603.99770 1.22847e-17
5606.00166 1.22325e-17
5607.99550 1.21973e-17
5609.99945 1.21709e-17
5612.00341 1.21723e-17
5613.99725 1.22976e-17
5616.00121 1.26093e-17
5617.99504 1.26645e-17
5619.99900 1.25400e-17
5622.00296 1.24111e-17
5623.99680 1.21747e-17
5626.00075 1.20402e-17
5628.00471 1.22563e-17
5629.99855 1.26906e-17
5632.00251 1.28131e-17
5633.99634 1.27692e-17
5636.00030 1.26864e-17
5638.00426 1.24387e-17
5639.99810 1.22841e-17
5642.00205 1.22808e-17
5643.99589 1.23326e-17
5645.99985 1.23649e-17
5648.00381 1.24159e-17
5649.99764 1.24096e-17
5652.00160 1.23390e-17
5653.99544 1.23078e-17
5655.99940 1.22734e-17
5658.00336 1.22916e-17
5659.99719 1.24018e-17
5662.00115 1.25588e-17
5664.00511 1.26898e-17
5665.99895 1.28688e-17
5668.00290 1.28517e-17
5669.99674 1.25494e-17
5672.00070 1.24746e-17
5674.00466 1.27319e-17
5675.99849 1.29172e-17
5678.00245 1.27118e-17
5679.99629 1.23198e-17
5682.00025 1.22881e-17
5684.00421 1.24575e-17
5685.99804 1.27034e-17
5688.00200 1.33126e-17
5689.99584 1.35481e-17
5691.99979 1.32016e-17
5694.00375 1.27309e-17
5695.99759 1.25496e-17
5698.00155 1.24776e-17
5699.99539 1.24975e-17
5701.99934 1.26269e-17
5704.00330 1.28263e-17
5705.99714 1.32547e-17
5708.00110 1.34996e-17
5710.00505 1.33771e-17
5711.99889 1.31164e-17
5714.00285 1.30117e-17
5715.99669 1.29122e-17
5718.00064 1.30425e-17
5720.00460 1.35135e-17
5721.99844 1.37487e-17
5724.00240 1.37688e-17
5725.99623 1.37462e-17
5728.00019 1.37514e-17
5730.00415 1.37449e-17
5731.99799 1.37213e-17
5734.00194 1.36441e-17
5735.99578 1.36723e-17
5737.99974 1.38580e-17
5740.00370 1.39015e-17
5741.99754 1.37005e-17
5744.00149 1.35214e-17
5745.99533 1.36248e-17
5747.99929 1.38945e-17
5750.00325 1.39512e-17
5751.99708 1.38496e-17
5754.00104 1.38398e-17
5756.00500 1.38687e-17
5757.99884 1.38980e-17
5760.00279 1.39003e-17
5761.99663 1.39231e-17
5764.00059 1.40559e-17
5766.00455 1.43000e-17
5767.99838 1.43454e-17
5770.00234 1.42139e-17
5771.99618 1.41559e-17
5774.00014 1.41056e-17
5776.00410 1.41126e-17
5777.99793 1.42141e-17
5780.00189 1.43761e-17
5781.99573 1.45490e-17
5783.99969 1.48285e-17
5786.00364 1.48522e-17
5787.99748 1.46500e-17
5790.00144 1.44690e-17
5791.99528 1.42246e-17
5793.99923 1.40651e-17
5796.00319 1.41475e-17
5797.99703 1.43869e-17
5800.00099 1.45637e-17
5802.00494 1.48398e-17
5803.99878 1.49180e-17
5806.00274 1.48511e-17
5807.99658 1.47365e-17
5810.00053 1.45232e-17
5812.00449 1.43225e-17
5813.99833 1.43014e-17
5816.00229 1.43929e-17
5817.99612 1.45543e-17
5820.00008 1.49873e-17
5822.00404 1.50738e-17
5823.99788 1.47588e-17
5826.00184 1.45546e-17
5827.99567 1.46992e-17
5829.99963 1.49405e-17
5832.00359 1.49076e-17
5833.99742 1.47012e-17
5836.00138 1.45501e-17
5837.99522 1.43134e-17
5839.99918 1.42107e-17
5842.00314 1.42902e-17
5843.99697 1.43634e-17
5846.00093 1.43186e-17
5848.00489 1.42188e-17
5849.99873 1.41123e-17
5852.00268 1.39222e-17
5853.99652 1.38767e-17
5856.00048 1.39551e-17
5858.00444 1.40188e-17
5859.99827 1.40634e-17
5862.00223 1.41040e-17
5863.99607 1.41510e-17
5866.00003 1.42044e-17
5868.00399 1.41580e-17
5869.99782 1.39541e-17
5872.00178 1.39046e-17
5873.99562 1.39880e-17
5875.99957 1.40503e-17
5878.00353 1.40622e-17
5879.99737 1.40449e-17
5882.00133 1.39780e-17
5883.99516 1.38478e-17
5885.99912 1.38011e-17
5888.00308 1.39773e-17
5889.99692 1.37829e-17
5892.00088 1.29603e-17
5894.00483 1.24173e-17
5895.99867 1.27167e-17
5898.00263 1.34286e-17
5899.99647 1.37932e-17
5902.00042 1.41642e-17
5904.00438 1.42142e-17
5905.99822 1.38092e-17
5908.00218 1.36532e-17
5909.99601 1.38134e-17
5911.99997 1.40371e-17
5914.00393 1.42089e-17
5915.99777 1.43820e-17
5918.00173 1.42182e-17
5919.99556 1.35063e-17
5921.99952 1.33591e-17
5924.00348 1.36335e-17
5925.99731 1.38694e-17
5928.00127 1.40033e-17
5929.99511 1.41017e-17
5931.99907 1.41512e-17
5934.00303 1.41470e-17
5935.99686 1.41833e-17
5938.00082 1.42650e-17
5940.00478 1.42778e-17
5941.99862 1.42414e-17
5944.00257 1.41630e-17
5945.99641 1.40223e-17
5948.00037 1.38510e-17
5950.00433 1.37418e-17
5951.99816 1.36417e-17
5954.00212 1.36396e-17
5955.99596 1.38182e-17
5957.99992 1.38383e-17
5960.00388 1.36576e-17
5961.99771 1.34599e-17
5964.00167 1.33436e-17
5965.99551 1.32635e-17
5967.99946 1.32956e-17
5970.00342 1.34545e-17
5971.99726 1.35942e-17
5974.00122 1.38154e-17
5976.00518 1.39492e-17
5977.99901 1.39194e-17
5980.00297 1.38803e-17
5981.99681 1.40366e-17
5984.00077 1.43334e-17
5986.00472 1.43180e-17
5987.99856 1.40004e-17
5990.00252 1.38398e-17
5991.99636 1.36829e-17
5994.00031 1.36644e-17
5996.00427 1.39199e-17
5997.99811 1.42582e-17
6000.00207 1.42952e-17
6001.99590 1.41187e-17
6003.99986 1.40803e-17
6006.00382 1.41055e-17
6007.99766 1.40837e-17
6010.00161 1.39841e-17
6011.99545 1.39215e-17
6013.99941 1.40023e-17
6016.00337 1.41423e-17
6017.99721 1.40695e-17
6020.00116 1.37920e-17
6021.99500 1.36593e-17
6023.99896 1.35588e-17
6026.00292 1.35166e-17
6027.99675 1.35676e-17
6030.00071 1.36325e-17
6032.00467 1.36442e-17
6033.99851 1.36353e-17
6036.00246 1.35227e-17
6037.99630 1.31905e-17
6040.00026 1.31225e-17
6042.00422 1.33208e-17
6043.99805 1.34359e-17
6046.00201 1.33863e-17
6047.99585 1.32580e-17
6049.99981 1.30679e-17
6052.00376 1.27429e-17
6053.99760 1.27612e-17
6056.00156 1.31872e-17
6057.99540 1.33271e-17
6059.99935 1.32035e-17
6062.00331 1.30663e-17
6063.99715 1.30363e-17
6066.00111 1.30228e-17
6068.00507 1.28956e-17
6069.99890 1.26681e-17
6072.00286 1.24916e-17
6073.99670 1.23030e-17
6076.00066 1.21554e-17
6078.00461 1.20460e-17
6079.99845 1.19723e-17
6082.00241 1.19261e-17
6083.99625 1.19124e-17
6086.00020 1.20101e-17
6088.00416 1.23260e-17
6089.99800 1.24018e-17
6092.00196 1.23088e-17
6093.99579 1.22116e-17
6095.99975 1.21178e-17
6098.00371 1.20293e-17
6099.99755 1.19954e-17
6102.00151 1.20107e-17
6103.99534 1.19267e-17
6105.99930 1.16745e-17
6108.00326 1.16363e-17
6109.99709 1.18432e-17
6112.00105 1.20045e-17
6114.00501 1.20207e-17
6115.99885 1.19612e-17
6118.00281 1.18309e-17
6119.99664 1.15563e-17
6122.00060 1.15017e-17
6124.00456 1.16304e-17
6125.99840 1.17085e-17
6128.00235 1.17471e-17
6129.99619 1.17821e-17
6132.00015 1.18402e-17
6134.00411 1.19017e-17
6135.99794 1.18700e-17
6138.00190 1.17101e-17
6139.99574 1.16735e-17
6141.99970 1.16993e-17
6144.00366 1.17497e-17
6145.99749 1.18537e-17
6148.00145 1.19488e-17
6149.99529 1.19450e-17
6151.99924 1.18740e-17
6154.00320 1.18518e-17
6155.99704 1.18346e-17
6158.00100 1.18402e-17
6159.99484 1.18698e-17
6161.99879 1.19087e-17
6164.00275 1.19495e-17
6165.99659 1.20015e-17
6168.00055 1.20836e-17
6170.00450 1.22016e-17
6171.99834 1.22750e-17
6174.00230 1.23314e-17
6175.99614 1.23627e-17
6178.00009 1.23891e-17
6180.00405 1.23629e-17
6181.99789 1.22017e-17
6184.00185 1.19878e-17
6185.99568 1.20477e-17
6187.99964 1.23796e-17
6190.00360 1.25159e-17
6191.99744 1.25810e-17
6194.00140 1.26199e-17
6195.99523 1.26076e-17
6197.99919 1.25961e-17
6200.00315 1.26494e-17
6201.99699 1.27402e-17
6204.00094 1.27775e-17
6206.00490 1.27701e-17
6207.99874 1.27916e-17
6210.00270 1.28598e-17
6211.99653 1.28705e-17
6214.00049 1.27431e-17
6216.00445 1.26135e-17
6217.99829 1.27028e-17
6220.00224 1.29593e-17
6221.99608 1.30901e-17
6224.00004 1.32754e-17
6226.00400 1.32355e-17
6227.99783 1.28371e-17
6230.00179 1.25597e-17
6231.99563 1.26623e-17
6233.99959 1.29355e-17
6236.00354 1.30739e-17
6237.99738 1.32290e-17
6240.00134 1.32249e-17
6242.00530 1.30498e-17
6243.99914 1.29029e-17
6246.00309 1.27262e-17
6247.99693 1.26177e-17
6250.00089 1.26894e-17
6252.00485 1.28827e-17
6253.99868 1.30315e-17
6256.00264 1.32599e-17
6257.99648 1.33382e-17
6260.00044 1.32779e-17
6262.00439 1.32364e-17
6263.99823 1.32289e-17
6266.00219 1.32369e-17
6267.99603 1.32750e-17
6269.99998 1.33467e-17
6272.00394 1.33477e-17
6273.99778 1.33301e-17
6276.00174 1.32344e-17
6277.99557 1.30190e-17
6279.99953 1.28297e-17
6282.00349 1.26971e-17
6283.99733 1.26145e-17
6286.00129 1.26550e-17
6287.99512 1.28414e-17
6289.99908 1.29039e-17
6292.00304 1.28725e-17
6293.99687 1.29134e-17
6296.00083 1.30420e-17
6298.00479 1.31713e-17
6299.99863 1.32471e-17
6302.00259 1.33011e-17
6303.99642 1.33834e-17
6306.00038 1.35103e-17
6308.00434 1.35548e-17
6309.99818 1.35200e-17
6312.00213 1.35075e-17
6313.99597 1.35450e-17
6315.99993 1.35707e-17
6318.00389 1.35098e-17
6319.99772 1.33853e-17
6322.00168 1.33899e-17
6323.99552 1.35688e-17
6325.99948 1.35571e-17
6328.00344 1.33196e-17
6329.99727 1.31966e-17
6332.00123 1.33043e-17
6333.99507 1.35112e-17
6335.99903 1.36999e-17
6338.00298 1.39731e-17
6339.99682 1.39663e-17
6342.00078 1.36852e-17
6344.00474 1.34766e-17
6345.99857 1.32708e-17
6348.00253 1.31070e-17
6349.99637 1.30200e-17
6352.00033 1.29862e-17
6354.00428 1.29792e-17
6355.99812 1.30696e-17
6358.00208 1.30032e-17
6359.99592 1.27290e-17
6361.99987 1.26306e-17
6364.00383 1.27850e-17
6365.99767 1.29702e-17
6368.00163 1.29905e-17
6369.99546 1.29347e-17
6371.99942 1.30608e-17
6374.00338 1.34015e-17
6375.99722 1.35484e-17
6378.00118 1.35482e-17
6380.00513 1.35795e-17
6381.99897 1.36858e-17
6384.00293 1.38083e-17
6385.99676 1.38923e-17
6388.00072 1.39511e-17
6390.00468 1.40618e-17
6391.99852 1.43796e-17
6394.00248 1.43220e-17
6395.99631 1.37770e-17
6398.00027 1.33290e-17
6400.00423 1.32155e-17
6401.99807 1.32717e-17
6404.00202 1.34152e-17
6405.99586 1.37505e-17
6407.99982 1.39280e-17
6410.00378 1.40557e-17
6411.99761 1.41294e-17
6414.00157 1.41105e-17
6415.99541 1.40916e-17
6417.99937 1.41646e-17
6420.00332 1.42773e-17
6421.99716 1.42557e-17
6424.00112 1.40772e-17
6426.00508 1.40315e-17
6427.99891 1.40849e-17
6430.00287 1.40904e-17
6431.99671 1.39920e-17
6434.00067 1.38984e-17
6436.00463 1.39426e-17
6437.99846 1.40851e-17
6440.00242 1.41153e-17
6441.99626 1.40222e-17
6444.00022 1.40691e-17
6446.00417 1.42996e-17
6447.99801 1.44386e-17
6450.00197 1.43443e-17
6451.99581 1.41777e-17
6453.99976 1.41985e-17
6456.00372 1.43395e-17
6457.99756 1.44183e-17
6460.00152 1.45607e-17
6461.99535 1.45499e-17
6463.99931 1.43285e-17
6466.00327 1.41092e-17
6467.99711 1.40396e-17
6470.00106 1.40247e-17
6471.99490 1.38723e-17
6473.99886 1.35511e-17
6476.00282 1.34436e-17
6477.99665 1.34823e-17
6480.00061 1.35315e-17
6482.00457 1.36080e-17
6483.99841 1.36808e-17
6486.00237 1.36817e-17
6487.99620 1.36339e-17
6490.00016 1.37179e-17
6492.00412 1.39594e-17
6493.99796 1.40700e-17
6496.00191 1.40975e-17
6497.99575 1.41086e-17
6499.99971 1.41282e-17
6502.00367 1.41232e-17
6503.99750 1.40357e-17
6506.00146 1.38500e-17
6507.99530 1.38315e-17
6509.99926 1.39507e-17
6512.00321 1.40338e-17
6513.99705 1.41200e-17
6516.00101 1.41828e-17
6518.00497 1.41917e-17
6519.99881 1.41746e-17
6522.00276 1.42061e-17
6523.99660 1.42994e-17
6526.00056 1.42806e-17
6528.00452 1.41692e-17
6529.99835 1.40649e-17
6532.00231 1.39248e-17
6533.99615 1.38334e-17
6536.00011 1.38958e-17
6538.00406 1.40614e-17
6539.99790 1.41306e-17
6542.00186 1.41558e-17
6543.99570 1.41907e-17
6545.99965 1.41974e-17
6548.00361 1.42418e-17
6549.99745 1.43648e-17
6552.00141 1.44935e-17
6554.00536 1.45215e-17
6555.99920 1.44749e-17
6558.00316 1.45177e-17
6559.99700 1.46743e-17
6562.00096 1.46932e-17
6564.00491 1.45698e-17
6565.99875 1.44485e-17
6568.00271 1.43675e-17
6569.99654 1.43116e-17
6572.00050 1.43278e-17
6574.00446 1.44023e-17
6575.99830 1.45159e-17
6578.00226 1.47380e-17
6579.99609 1.48726e-17
6582.00005 1.49110e-17
6584.00401 1.49232e-17
6585.99785 1.49530e-17
6588.00180 1.49761e-17
6589.99564 1.49501e-17
6591.99960 1.48265e-17
6594.00356 1.48323e-17
6595.99739 1.49877e-17
6598.00135 1.50397e-17
6599.99519 1.49189e-17
6601.99915 1.47650e-17
6604.00310 1.47126e-17
6605.99694 1.47076e-17
6608.00090 1.46945e-17
6610.00486 1.47005e-17
6611.99870 1.46962e-17
6614.00265 1.46640e-17
6615.99649 1.46702e-17
6618.00045 1.47577e-17
6620.00441 1.48702e-17
6621.99824 1.49096e-17
6624.00220 1.49056e-17
6625.99604 1.49069e-17
6628.00000 1.49385e-17
6630.00395 1.48742e-17
6631.99779 1.46006e-17
6634.00175 1.44461e-17
6635.99559 1.46881e-17
6637.99954 1.51160e-17
6640.00350 1.51468e-17
6641.99734 1.48686e-17
6644.00130 1.47592e-17
6645.99513 1.46816e-17
6647.99909 1.46208e-17
6650.00305 1.45530e-17
6651.99689 1.45324e-17
6654.00084 1.46416e-17
6656.00480 1.48507e-17
6657.99864 1.48896e-17
6660.00260 1.47822e-17
6661.99644 1.47542e-17
6664.00039 1.48011e-17
6666.00435 1.47734e-17
6667.99819 1.46039e-17
6670.00215 1.43913e-17
6671.99598 1.42648e-17
6673.99994 1.41714e-17
6676.00390 1.41205e-17
6677.99774 1.41074e-17
6680.00169 1.41374e-17
6681.99553 1.42780e-17
6683.99949 1.43519e-17
6686.00345 1.42408e-17
6687.99728 1.40472e-17
6690.00124 1.39735e-17
6692.00520 1.39396e-17
6693.99904 1.39702e-17
6696.00299 1.41099e-17
6697.99683 1.41997e-17
6700.00079 1.42532e-17
6702.00475 1.42665e-17
6703.99859 1.42055e-17
6706.00254 1.40892e-17
6707.99638 1.40624e-17
6710.00034 1.41070e-17
6712.00430 1.41148e-17
6713.99813 1.41289e-17
6716.00209 1.41134e-17
6717.99593 1.40297e-17
6719.99989 1.39522e-17
6722.00384 1.39896e-17
6723.99768 1.41101e-17
6726.00164 1.41770e-17
6727.99548 1.42576e-17
6729.99943 1.42770e-17
6732.00339 1.42358e-17
6733.99723 1.41735e-17
6736.00119 1.40832e-17
6737.99502 1.39872e-17
6739.99898 1.39710e-17
6742.00294 1.40213e-17
6743.99678 1.40392e-17
6746.00074 1.40242e-17
6748.00469 1.40728e-17
6749.99853 1.42224e-17
6752.00249 1.43553e-17
6753.99633 1.44110e-17
6756.00028 1.44156e-17
6758.00424 1.42966e-17
6759.99808 1.39581e-17
6762.00204 1.38460e-17
6763.99587 1.38723e-17
6765.99983 1.39108e-17
6768.00379 1.39663e-17
6769.99763 1.40285e-17
6772.00158 1.40624e-17
6773.99542 1.40804e-17
6775.99938 1.41313e-17
6778.00334 1.42302e-17
6779.99717 1.42731e-17
6782.00113 1.42921e-17
6784.00509 1.42661e-17
6785.99893 1.41664e-17
6788.00289 1.40378e-17
6789.99672 1.39633e-17
6792.00068 1.39058e-17
6794.00464 1.38942e-17
6795.99848 1.39416e-17
6798.00243 1.39778e-17
6799.99627 1.40232e-17
6802.00023 1.40530e-17
6804.00419 1.40458e-17
6805.99802 1.40178e-17
6808.00198 1.40042e-17
6809.99582 1.39902e-17
6811.99978 1.39850e-17
6814.00373 1.40112e-17
6815.99757 1.39926e-17
6818.00153 1.38958e-17
6819.99537 1.38039e-17
6821.99932 1.37828e-17
6824.00328 1.38017e-17
6825.99712 1.38996e-17
6828.00108 1.41802e-17
6830.00504 1.42480e-17
6831.99887 1.41431e-17
6834.00283 1.40466e-17
6835.99667 1.39848e-17
6838.00062 1.39365e-17
6840.00458 1.39191e-17
6841.99842 1.39331e-17
6844.00238 1.39180e-17
6845.99621 1.38498e-17
6848.00017 1.38684e-17
6850.00413 1.40166e-17
6851.99797 1.41153e-17
6854.00193 1.40530e-17
6855.99576 1.39316e-17
6857.99972 1.39497e-17
6860.00368 1.40718e-17
6861.99752 1.41215e-17
6864.00147 1.42048e-17
6865.99531 1.41615e-17
6867.99927 1.39328e-17
6870.00323 1.36901e-17
6871.99706 1.35306e-17
6874.00102 1.34121e-17
6876.00498 1.34908e-17
6877.99882 1.38815e-17
6880.00277 1.40030e-17
6881.99661 1.40178e-17
6884.00057 1.39424e-17
6886.00453 1.36764e-17
6887.99836 1.34274e-17
6890.00232 1.35227e-17
6891.99616 1.38716e-17
6894.00012 1.39398e-17
6896.00408 1.38664e-17
6897.99791 1.37660e-17
6900.00187 1.35369e-17
6901.99571 1.33870e-17
6903.99967 1.34221e-17
6906.00362 1.35318e-17
6907.99746 1.35517e-17
6910.00142 1.35412e-17
6911.99526 1.35185e-17
6913.99921 1.34472e-17
6916.00317 1.34232e-17
6917.99701 1.34554e-17
6920.00097 1.34925e-17
6922.00493 1.35229e-17
6923.99876 1.35447e-17
6926.00272 1.34604e-17
6927.99656 1.32503e-17
6930.00051 1.31188e-17
6932.00447 1.29424e-17
6933.99831 1.29085e-17
6936.00227 1.30678e-17
6937.99611 1.33052e-17
6940.00006 1.35507e-17
6942.00402 1.38489e-17
6943.99786 1.39081e-17
6946.00182 1.37794e-17
6947.99565 1.36164e-17
6949.99961 1.32989e-17
6952.00357 1.30564e-17
6953.99741 1.29475e-17
6956.00136 1.29186e-17
6957.99520 1.29486e-17
6959.99916 1.30472e-17
6962.00312 1.32040e-17
6963.99695 1.35325e-17
6966.00091 1.36814e-17
6968.00487 1.36660e-17
6969.99871 1.35900e-17
6972.00266 1.34731e-17
6973.99650 1.33193e-17
6976.00046 1.32402e-17
6978.00442 1.31922e-17
6979.99826 1.31877e-17
6982.00221 1.32166e-17
6983.99605 1.32980e-17
6986.00001 1.34853e-17
6988.00397 1.36539e-17
6989.99780 1.36844e-17
6992.00176 1.36320e-17
6993.99560 1.35857e-17
6995.99956 1.35247e-17
6998.00351 1.34172e-17
6999.99735 1.32060e-17
7002.00131 1.30780e-17
7004.00527 1.30983e-17
7005.99910 1.31659e-17
7008.00306 1.31449e-17
7009.99690 1.30533e-17
7012.00086 1.32145e-17
7014.00481 1.37206e-17
7015.99865 1.39360e-17
7018.00261 1.39348e-17
7019.99645 1.38429e-17
7022.00040 1.36536e-17
7024.00436 1.34097e-17
7025.99820 1.33108e-17
7028.00216 1.32716e-17
7029.99600 1.33435e-17
7031.99995 1.35873e-17
7034.00391 1.37674e-17
7035.99775 1.39251e-17
7038.00171 1.40157e-17
7039.99554 1.39495e-17
7041.99950 1.37842e-17
7044.00346 1.38199e-17
7045.99730 1.41008e-17
7048.00125 1.41044e-17
7049.99509 1.38935e-17
7051.99905 1.37282e-17
7054.00301 1.36212e-17
7055.99684 1.35580e-17
7058.00080 1.35804e-17
7060.00476 1.36839e-17
7061.99860 1.36955e-17
7064.00256 1.35857e-17
7065.99639 1.36389e-17
7068.00035 1.38924e-17
7070.00431 1.40734e-17
7071.99814 1.40790e-17
7074.00210 1.40086e-17
7075.99594 1.39613e-17
7077.99990 1.38770e-17
7080.00386 1.38801e-17
7081.99769 1.40145e-17
7084.00165 1.40210e-17
7085.99549 1.38189e-17
7087.99945 1.36953e-17
7090.00340 1.38820e-17
7091.99724 1.42130e-17
7094.00120 1.42347e-17
7096.00516 1.40451e-17
7097.99899 1.38909e-17
7100.00295 1.36235e-17
7101.99679 1.34673e-17
7104.00075 1.34412e-17
7106.00471 1.34919e-17
7107.99854 1.36202e-17
7110.00250 1.38353e-17
7111.99634 1.38735e-17
7114.00029 1.37285e-17
7116.00425 1.37181e-17
7117.99809 1.38075e-17
7120.00205 1.38716e-17
7121.99589 1.38779e-17
7123.99984 1.38619e-17
7126.00380 1.38521e-17
7127.99764 1.38429e-17
7130.00160 1.37947e-17
7131.99543 1.36587e-17
7133.99939 1.36311e-17
7136.00335 1.37003e-17
7137.99719 1.38113e-17
7140.00114 1.39943e-17
7142.00510 1.41932e-17
7143.99894 1.41426e-17
7146.00290 1.38591e-17
7147.99673 1.36927e-17
7150.00069 1.34638e-17
7152.00465 1.33976e-17
7153.99849 1.35882e-17
7156.00245 1.37825e-17
7157.99628 1.37550e-17
7160.00024 1.36143e-17
7162.00420 1.36097e-17
7163.99804 1.37479e-17
7166.00199 1.37149e-17
7167.99583 1.35380e-17
7169.99979 1.33882e-17
7172.00375 1.32893e-17
7173.99758 1.32135e-17
7176.00154 1.31505e-17
7177.99538 1.30946e-17
7179.99934 1.31396e-17
7182.00329 1.33467e-17
7183.99713 1.34174e-17
7186.00109 1.33766e-17
7187.99493 1.33168e-17
7189.99888 1.32305e-17
7192.00284 1.31549e-17
7193.99668 1.32633e-17
7196.00064 1.35770e-17
7198.00459 1.36632e-17
7199.99843 1.36163e-17
7202.00239 1.35553e-17
7203.99623 1.33912e-17
7206.00019 1.33089e-17
7208.00414 1.34861e-17
7209.99798 1.38157e-17
7212.00194 1.39941e-17
7213.99578 1.41907e-17
7215.99973 1.41776e-17
7218.00369 1.39359e-17
7219.99753 1.37164e-17
7222.00149 1.34973e-17
7223.99532 1.33302e-17
7225.99928 1.33316e-17
7228.00324 1.34622e-17
7229.99708 1.35565e-17
7232.00103 1.37074e-17
7234.00499 1.37875e-17
7235.99883 1.38180e-17
7238.00279 1.38209e-17
7239.99662 1.38255e-17
7242.00058 1.37861e-17
7244.00454 1.35954e-17
7245.99838 1.32439e-17
7248.00234 1.30369e-17
7249.99617 1.28354e-17
7252.00013 1.27772e-17
7254.00409 1.28968e-17
7255.99792 1.30583e-17
7258.00188 1.32080e-17
7259.99572 1.33654e-17
7261.99968 1.34406e-17
7264.00364 1.34283e-17
7265.99747 1.34784e-17
7268.00143 1.35690e-17
7269.99527 1.36321e-17
7271.99923 1.37065e-17
7274.00318 1.37104e-17
7275.99702 1.35221e-17
7278.00098 1.31892e-17
7280.00494 1.30192e-17
7281.99877 1.29261e-17
7284.00273 1.28509e-17
7285.99657 1.28668e-17
7288.00053 1.28112e-17
7290.00449 1.25769e-17
7291.99832 1.23365e-17
7294.00228 1.23561e-17
7295.99612 1.25600e-17
7298.00007 1.27132e-17
7300.00403 1.29955e-17
7301.99787 1.30691e-17
7304.00183 1.29259e-17
7305.99566 1.27422e-17
7307.99962 1.25600e-17
7310.00358 1.23758e-17
7311.99742 1.23218e-17
7314.00138 1.23682e-17
7315.99521 1.24298e-17
7317.99917 1.25704e-17
7320.00313 1.26740e-17
7321.99697 1.27487e-17
7324.00092 1.27970e-17
7326.00488 1.28111e-17
7327.99872 1.27949e-17
7330.00268 1.27571e-17
7331.99651 1.27293e-17
7334.00047 1.25922e-17
7336.00443 1.22507e-17
7337.99827 1.20762e-17
7340.00223 1.22217e-17
7341.99606 1.24103e-17
7344.00002 1.23029e-17
7346.00398 1.20082e-17
7347.99781 1.18701e-17
7350.00177 1.17304e-17
7351.99561 1.17419e-17
7353.99957 1.19635e-17
7356.00353 1.21522e-17
7357.99736 1.22306e-17
7360.00132 1.22502e-17
7361.99516 1.22044e-17
7363.99912 1.20717e-17
7366.00307 1.19774e-17
7367.99691 1.19102e-17
7370.00087 1.17851e-17
7372.00483 1.15690e-17
7373.99866 1.13673e-17
7376.00262 1.12337e-17
7377.99646 1.11451e-17
7380.00042 1.11649e-17
7382.00438 1.13393e-17
7383.99821 1.14145e-17
7386.00217 1.14561e-17
7387.99601 1.14907e-17
7389.99996 1.15239e-17
7392.00392 1.15432e-17
7393.99776 1.15463e-17
7396.00172 1.15386e-17
7397.99556 1.14409e-17
7399.99951 1.11909e-17
7402.00347 1.10834e-17
7403.99731 1.11006e-17
7406.00127 1.10979e-17
7408.00522 1.10014e-17
7409.99906 1.09090e-17
7412.00302 1.09815e-17
7413.99686 1.11968e-17
7416.00081 1.12972e-17
7418.00477 1.13995e-17
7419.99861 1.13897e-17
7422.00257 1.12090e-17
7423.99640 1.10500e-17
7426.00036 1.10187e-17
7428.00432 1.10486e-17
7429.99816 1.10816e-17
7432.00211 1.11813e-17
7433.99595 1.11723e-17
7435.99991 1.10868e-17
7438.00387 1.09856e-17
7439.99770 1.08424e-17
7442.00166 1.07102e-17
7443.99550 1.06475e-17
7445.99946 1.06278e-17
7448.00342 1.06208e-17
7449.99725 1.06157e-17
7452.00121 1.06840e-17
7454.00517 1.08703e-17
7455.99901 1.09949e-17
7458.00296 1.10239e-17
7459.99680 1.09944e-17
7462.00076 1.09103e-17
7464.00472 1.07544e-17
7465.99855 1.06533e-17
7468.00251 1.05551e-17
7469.99635 1.04963e-17
7472.00031 1.04969e-17
7474.00426 1.04866e-17
7475.99810 1.04222e-17
7478.00206 1.03433e-17
7479.99590 1.03246e-17
7481.99986 1.03459e-17
7484.00381 1.03729e-17
7485.99765 1.04256e-17
7488.00161 1.04749e-17
7489.99544 1.05295e-17
7491.99940 1.05751e-17
7494.00336 1.06142e-17
7495.99720 1.06418e-17
7498.00116 1.05499e-17
7499.99499 1.02685e-17
7501.99895 1.01687e-17
7504.00291 1.01921e-17
7505.99675 1.01958e-17
7508.00070 1.01671e-17
7510.00466 1.01227e-17
7511.99850 1.00392e-17
7514.00246 9.90833e-18
7515.99629 9.94443e-18
7518.00025 1.01796e-17
7520.00421 1.02779e-17
7521.99805 1.02853e-17
7524.00201 1.02743e-17
7525.99584 1.02701e-17
7527.99980 1.02491e-17
7530.00376 1.01830e-17
7531.99759 1.00716e-17
7534.00155 9.97561e-18
7535.99539 9.84531e-18
7537.99935 9.77739e-18
7540.00331 9.77314e-18
7541.99714 9.79917e-18
7544.00110 9.85503e-18
7546.00506 9.93286e-18
7547.99890 9.93679e-18
7550.00285 9.85525e-18
7551.99669 9.86135e-18
7554.00065 9.95086e-18
7556.00461 9.98485e-18
7557.99844 9.90523e-18
7560.00240 9.84367e-18
7561.99624 9.94904e-18
7564.00020 1.01662e-17
7566.00416 1.02518e-17
7567.99799 1.02529e-17
7570.00195 1.02837e-17
7571.99579 1.03405e-17
7573.99975 1.03559e-17
7576.00370 1.03226e-17
7577.99754 1.02395e-17
7580.00150 1.00623e-17
7581.99534 9.76191e-18
7583.99929 9.65085e-18
7586.00325 9.63936e-18
7587.99709 9.69916e-18
7590.00105 9.84477e-18
7592.00500 1.00507e-17
7593.99884 1.03909e-17
7596.00280 1.07601e-17
7597.99664 1.06909e-17
7600.00059 1.02002e-17
7602.00455 9.93826e-18
7603.99839 9.66836e-18
7606.00235 9.51548e-18
7607.99618 9.54240e-18
7610.00014 9.58794e-18
7612.00410 9.46220e-18
7613.99794 9.25404e-18
7616.00189 9.44514e-18
7617.99573 1.01619e-17
7619.99969 1.04154e-17
7622.00365 1.04458e-17
7623.99749 1.03370e-17
7626.00144 1.00484e-17
7627.99528 9.66979e-18
7629.99924 9.33471e-18
7632.00320 8.95383e-18
7633.99703 8.83085e-18
7636.00099 8.94545e-18
7638.00495 9.04626e-18
7639.99879 9.20024e-18
7642.00274 9.35948e-18
7643.99658 9.50766e-18
7646.00054 9.65036e-18
7648.00450 9.76760e-18
7649.99833 9.89135e-18
7652.00229 9.90294e-18
7653.99613 9.74964e-18
7656.00009 9.70614e-18
7658.00404 9.78364e-18
7659.99788 9.89001e-18
7662.00184 9.98880e-18
7663.99568 1.00939e-17
7665.99964 1.01198e-17
7668.00359 1.00306e-17
7669.99743 1.00590e-17
7672.00139 1.01507e-17
7673.99522 1.02659e-17
7675.99918 1.04384e-17
7678.00314 1.05961e-17
7679.99698 1.06353e-17
7682.00094 1.05944e-17
7684.00489 1.05552e-17
7685.99873 1.04424e-17
7688.00269 1.04160e-17
7689.99653 1.05227e-17
7692.00048 1.05378e-17
7694.00444 1.03417e-17
7695.99828 1.00770e-17
7698.00224 9.96970e-18
7699.99607 9.93895e-18
7702.00003 9.94812e-18
7704.00399 1.00642e-17
7705.99783 1.01122e-17
7708.00179 1.01078e-17
7709.99562 1.00715e-17
7711.99958 9.99493e-18
7714.00354 9.89022e-18
7715.99737 9.83306e-18
7718.00133 9.77061e-18
7720.00529 9.80378e-18
7721.99913 9.96079e-18
7724.00309 1.00684e-17
7725.99692 1.01154e-17
7728.00088 1.01375e-17
7730.00484 1.01472e-17
7731.99868 1.01379e-17
7734.00263 1.01444e-17
7735.99647 1.02179e-17
7738.00043 1.01474e-17
7740.00439 9.88921e-18
7741.99822 9.71449e-18
7744.00218 9.69127e-18
7745.99602 9.74580e-18
7747.99998 9.85674e-18
7750.00394 1.00923e-17
7751.99777 1.00262e-17
7754.00173 9.60011e-18
7755.99557 9.43412e-18
7757.99953 9.47919e-18
7760.00348 9.58860e-18
7761.99732 9.71985e-18
7764.00128 9.89054e-18
7765.99511 1.00595e-17
7767.99907 1.02833e-17
7770.00303 1.03794e-17
7771.99687 1.03684e-17
7774.00083 1.03551e-17
7776.00478 1.03423e-17
7777.99862 1.03067e-17
7780.00258 1.02294e-17
7781.99642 1.01202e-17
7784.00037 1.00382e-17
7786.00433 9.93528e-18
7787.99817 9.90687e-18
7790.00213 1.00038e-17
7791.99596 1.00041e-17
7793.99992 9.78812e-18
7796.00388 9.57147e-18
7797.99772 9.64539e-18
7800.00168 9.92339e-18
7801.99551 1.00724e-17
7803.99947 1.02006e-17
7806.00343 1.03062e-17
7807.99726 1.03560e-17
7810.00122 1.04389e-17
7811.99506 1.06317e-17
7813.99902 1.08423e-17
7816.00298 1.08632e-17
7817.99681 1.07262e-17
7820.00077 1.06671e-17
7822.00473 1.06436e-17
7823.99857 1.05625e-17
7826.00252 1.03946e-17
7827.99636 1.02352e-17
7830.00032 1.01341e-17
7832.00428 1.00697e-17
7833.99811 1.00983e-17
7836.00207 1.02745e-17
7837.99591 1.03285e-17
7839.99987 1.02657e-17
7842.00382 1.03018e-17
7843.99766 1.04586e-17
7846.00162 1.06922e-17
7847.99546 1.10475e-17
7849.99941 1.15469e-17
7852.00337 1.15325e-17
7853.99721 1.10064e-17
7856.00117 1.06830e-17
7858.00513 1.03806e-17
7859.99896 1.01416e-17
7862.00292 9.96065e-18
7863.99676 9.86246e-18
7866.00072 9.93850e-18
7868.00467 1.01934e-17
7869.99851 1.03836e-17
7872.00247 1.06272e-17
7873.99631 1.07916e-17
7876.00026 1.08603e-17
7878.00422 1.09236e-17
7879.99806 1.10595e-17
7882.00202 1.12035e-17
7883.99585 1.11576e-17
7885.99981 1.09080e-17
7888.00377 1.07963e-17
7889.99761 1.07370e-17
7892.00156 1.06813e-17
7893.99540 1.06463e-17
7895.99936 1.05978e-17
7898.00332 1.04636e-17
7899.99716 1.02704e-17
7902.00111 1.03154e-17
7904.00507 1.05886e-17
7905.99891 1.07851e-17
7908.00287 1.10510e-17
7909.99670 1.11989e-17
7912.00066 1.11663e-17
7914.00462 1.10389e-17
7915.99846 1.08936e-17
7918.00241 1.06730e-17
7919.99625 1.05794e-17
7922.00021 1.05505e-17
7924.00417 1.05794e-17
7925.99800 1.06955e-17
7928.00196 1.08258e-17
7929.99580 1.09676e-17
7931.99976 1.10997e-17
7934.00371 1.10847e-17
7935.99755 1.09458e-17
7938.00151 1.08088e-17
7939.99535 1.05490e-17
7941.99931 1.04312e-17
7944.00326 1.05492e-17
7945.99710 1.06318e-17
7948.00106 1.04466e-17
7950.00502 1.01129e-17
7951.99885 9.92323e-18
7954.00281 9.70732e-18
7955.99665 9.70372e-18
7958.00061 9.97511e-18
7960.00456 1.01438e-17
7961.99840 1.01167e-17
7964.00236 1.00524e-17
7965.99620 1.00959e-17
7968.00015 1.01889e-17
7970.00411 1.03050e-17
7971.99795 1.05994e-17
7974.00191 1.05906e-17
7975.99574 1.02633e-17
7977.99970 9.93121e-18
7980.00366 9.68376e-18
7981.99750 9.46619e-18
7984.00146 9.30552e-18
7985.99529 9.19943e-18
7987.99925 9.10591e-18
7990.00321 9.10035e-18
7991.99705 8.98799e-18
7994.00100 8.71129e-18
7996.00496 8.46835e-18
7997.99880 8.38602e-18
8000.00276 8.39350e-18
8001.99659 8.41977e-18
8004.00055 8.52923e-18
8006.00451 8.57531e-18
8007.99835 8.57651e-18
8010.00230 8.60551e-18
8011.99614 8.69358e-18
8014.00010 8.77203e-18
8016.00406 8.76165e-18
8017.99789 8.69074e-18
8020.00185 8.68328e-18
8021.99569 8.79876e-18
8023.99965 8.70127e-18
8026.00360 8.35027e-18
8027.99744 8.08036e-18
8030.00140 8.00790e-18
8031.99524 8.00171e-18
8033.99919 7.90978e-18
8036.00315 7.76002e-18
8037.99699 7.75639e-18
8040.00095 7.85848e-18
8042.00491 7.99087e-18
8043.99874 8.24531e-18
8046.00270 8.41837e-18
8047.99654 8.34247e-18
8050.00050 8.15526e-18
8052.00445 8.20672e-18
8053.99829 8.47329e-18
8056.00225 8.52697e-18
8057.99609 8.47261e-18
8060.00004 8.38046e-18
8062.00400 8.17893e-18
8063.99784 8.02291e-18
8066.00180 8.10566e-18
8067.99563 8.34115e-18
8069.99959 8.34704e-18
8072.00355 8.19572e-18
8073.99739 8.08143e-18
8076.00134 7.89105e-18
8077.99518 7.79777e-18
8079.99914 7.88015e-18
8082.00310 8.01218e-18
8083.99694 8.03317e-18
8086.00089 8.00217e-18
8088.00485 7.97257e-18
8089.99869 7.88649e-18
8092.00265 7.87587e-18
8093.99648 7.97052e-18
8096.00044 8.02692e-18
8098.00440 7.97592e-18
8099.99824 7.87316e-18
8102.00219 7.78249e-18
8103.99603 7.64006e-18
8105.99999 7.63518e-18
8108.00395 7.76142e-18
8109.99778 7.86116e-18
8112.00174 7.95854e-18
8113.99558 8.03046e-18
8115.99954 8.04764e-18
8118.00349 8.02509e-18
8119.99733 7.98002e-18
8122.00129 7.87386e-18
8124.00525 7.82009e-18
8125.99909 7.78350e-18
8128.00304 7.77053e-18
8129.99688 7.79585e-18
8132.00084 7.82943e-18
8134.00480 7.84522e-18
8135.99863 7.86514e-18
8138.00259 7.75698e-18
8139.99643 7.46848e-18
8142.00039 7.31423e-18
8144.00434 7.24406e-18
8145.99818 7.20732e-18
8148.00214 7.19081e-18
8149.99598 7.20479e-18
8151.99993 7.25937e-18
8154.00389 7.37452e-18
8155.99773 7.41827e-18
8158.00169 7.39000e-18
8159.99552 7.41999e-18
8161.99948 7.52812e-18
8164.00344 7.62351e-18
8165.99728 7.64759e-18
8168.00124 7.63661e-18
8170.00519 7.65391e-18
8171.99903 7.72711e-18
8174.00299 7.66447e-18
8175.99683 7.41840e-18
8178.00078 7.29821e-18
8180.00474 7.34741e-18
8181.99858 7.45752e-18
8184.00254 7.57522e-18
8185.99637 7.73285e-18
8188.00033 7.71803e-18
8190.00429 7.47196e-18
8191.99813 7.42936e-18
8194.00208 7.57512e-18
8195.99592 7.65184e-18
8197.99988 7.55974e-18
8200.00384 7.42830e-18
8201.99767 7.42513e-18
8204.00163 7.50268e-18
8205.99547 7.53199e-18
8207.99943 7.53245e-18
8210.00338 7.57237e-18
8211.99722 7.66147e-18
8214.00118 7.74609e-18
8215.99502 7.79143e-18
8217.99898 7.82583e-18
8220.00293 7.91269e-18
8221.99677 8.07828e-18
8224.00073 8.11095e-18
8226.00469 8.02618e-18
8227.99852 7.97011e-18
8230.00248 7.90827e-18
8231.99632 7.89920e-18
8234.00028 8.02796e-18
8236.00423 8.25399e-18
8237.99807 8.39825e-18
8240.00203 8.53796e-18
8241.99587 8.61792e-18
8243.99982 8.62756e-18
8246.00378 8.64022e-18
8247.99762 8.68678e-18
8250.00158 8.71545e-18
8251.99541 8.65793e-18
8253.99937 8.53210e-18
8256.00333 8.43055e-18
8257.99717 8.29689e-18
8260.00113 8.21755e-18
8262.00508 8.17724e-18
8263.99892 8.17153e-18
8266.00288 8.19571e-18
8267.99671 8.25664e-18
8270.00067 8.37707e-18
8272.00463 8.56736e-18
8273.99847 8.73462e-18
8276.00243 8.90383e-18
8277.99626 9.08557e-18
8280.00022 9.34041e-18
8282.00418 9.52001e-18
8283.99802 9.49213e-18
8286.00197 9.33326e-18
8287.99581 9.24328e-18
8289.99977 9.10793e-18
8292.00373 9.08593e-18
8293.99756 9.16928e-18
8296.00152 9.24595e-18
8297.99536 9.32370e-18
8299.99932 9.38258e-18
8302.00327 9.37991e-18
8303.99711 9.33393e-18
8306.00107 9.24591e-18
8307.99491 9.07928e-18
8309.99886 8.95372e-18
8312.00282 8.81183e-18
8313.99666 8.73596e-18
8316.00062 8.76805e-18
8318.00458 8.85925e-18
8319.99841 8.93075e-18
8322.00237 8.98756e-18
8323.99621 9.17812e-18
8326.00017 9.55873e-18
8328.00412 9.80598e-18
8329.99796 9.96897e-18
8332.00192 1.00373e-17
8333.99576 9.95658e-18
8335.99971 9.77821e-18
8338.00367 9.71193e-18
8339.99751 9.64359e-18
8342.00147 9.72708e-18
8344.00542 1.00738e-17
8345.99926 1.02151e-17
8348.00322 1.00368e-17
8349.99706 9.82526e-18
8352.00101 9.83288e-18
8353.99485 9.95100e-18
8355.99881 1.00062e-17
8358.00277 1.00405e-17
8359.99660 1.01085e-17
8362.00056 1.02013e-17
8364.00452 1.03047e-17
8365.99836 1.04429e-17
8368.00232 1.05677e-17
8369.99615 1.05657e-17
8372.00011 1.04324e-17
8374.00407 1.05308e-17
8375.99791 1.08347e-17
8378.00186 1.10581e-17
8379.99570 1.12806e-17
8381.99966 1.14244e-17
8384.00362 1.14115e-17
8385.99745 1.13175e-17
8388.00141 1.13378e-17
8390.00537 1.14668e-17
8391.99921 1.14109e-17
8394.00317 1.11999e-17
8395.99700 1.10134e-17
8398.00096 1.07960e-17
8400.00492 1.06466e-17
8401.99875 1.06769e-17
8404.00271 1.08314e-17
8405.99655 1.09730e-17
8408.00051 1.11911e-17
8410.00447 1.13404e-17
8411.99830 1.14751e-17
8414.00226 1.15573e-17
8415.99610 1.15352e-17
8418.00006 1.15091e-17
8420.00401 1.16231e-17
8421.99785 1.18282e-17
8424.00181 1.20159e-17
8425.99565 1.23637e-17
8427.99960 1.24064e-17
8430.00356 1.21146e-17
8431.99740 1.18217e-17
8434.00136 1.15896e-17
8435.99519 1.14198e-17
8437.99915 1.15341e-17
8440.00311 1.19735e-17
8441.99695 1.20984e-17
8444.00090 1.20470e-17
8446.00486 1.20013e-17
8447.99870 1.19006e-17
8450.00266 1.18429e-17
8451.99650 1.19195e-17
8454.00045 1.20764e-17
8456.00441 1.21991e-17
8457.99825 1.23883e-17
8460.00221 1.24228e-17
8461.99604 1.23709e-17
8464.00000 1.22230e-17
8466.00396 1.18710e-17
8467.99780 1.15462e-17
8470.00175 1.15463e-17
8471.99559 1.17609e-17
8473.99955 1.18741e-17
8476.00351 1.19951e-17
8477.99734 1.21078e-17
8480.00130 1.22133e-17
8481.99514 1.23188e-17
8483.99910 1.24100e-17
8486.00305 1.25137e-17
8487.99689 1.27114e-17
8490.00085 1.30365e-17
8492.00481 1.30887e-17
8493.99865 1.28936e-17
8496.00260 1.27673e-17
8497.99644 1.26218e-17
8500.00040 1.25612e-17
8502.00436 1.27264e-17
8503.99819 1.29900e-17
8506.00215 1.29190e-17
8507.99599 1.25109e-17
8509.99995 1.24085e-17
8512.00390 1.24346e-17
8513.99774 1.25451e-17
8516.00170 1.28243e-17
8518.00566 1.30860e-17
8519.99949 1.31298e-17
8522.00345 1.30442e-17
8523.99729 1.30043e-17
8526.00125 1.28727e-17
8527.99508 1.29148e-17
8529.99904 1.31470e-17
8532.00300 1.33269e-17
8533.99684 1.34014e-17
8536.00079 1.34319e-17
8538.00475 1.34439e-17
8539.99859 1.34081e-17
8542.00255 1.34734e-17
8543.99639 1.36699e-17
8546.00034 1.37472e-17
8548.00430 1.36958e-17
8549.99814 1.36596e-17
8552.00210 1.37101e-17
8553.99593 1.37902e-17
8555.99989 1.38201e-17
8558.00385 1.38330e-17
8559.99769 1.38125e-17
8562.00164 1.37073e-17
8563.99548 1.36895e-17
8565.99944 1.38161e-17
8568.00340 1.39184e-17
8569.99723 1.38595e-17
8572.00119 1.37096e-17
8574.00515 1.36089e-17
8575.99899 1.34412e-17
8578.00295 1.34397e-17
8579.99678 1.36014e-17
8582.00074 1.37404e-17
8584.00470 1.38476e-17
8585.99854 1.39276e-17
8588.00249 1.39375e-17
8589.99633 1.38819e-17
8592.00029 1.39119e-17
8594.00425 1.40102e-17
8595.99808 1.40723e-17
8598.00204 1.41237e-17
8599.99588 1.41558e-17
8601.99984 1.41690e-17
8604.00379 1.41591e-17
8605.99763 1.41019e-17
8608.00159 1.39763e-17
8609.99543 1.39442e-17
8611.99938 1.39646e-17
8614.00334 1.40091e-17
8615.99718 1.41065e-17
8618.00114 1.41945e-17
8620.00510 1.42337e-17
8621.99893 1.42443e-17
8624.00289 1.42242e-17
8625.99673 1.41554e-17
8628.00069 1.41084e-17
8630.00464 1.41088e-17
8631.99848 1.40195e-17
8634.00244 1.37516e-17
8635.99627 1.35012e-17
8638.00023 1.34863e-17
8640.00419 1.36209e-17
8641.99803 1.37011e-17
8644.00199 1.37842e-17
8645.99582 1.39054e-17
8647.99978 1.40599e-17
8650.00374 1.42373e-17
8651.99758 1.45069e-17
8654.00153 1.47418e-17
8655.99537 1.46608e-17
8657.99933 1.43043e-17
8660.00329 1.41327e-17
8661.99712 1.39560e-17
8664.00108 1.39175e-17
8666.00504 1.40893e-17
8667.99888 1.42300e-17
8670.00284 1.42180e-17
8671.99667 1.41265e-17
8674.00063 1.39808e-17
8676.00459 1.36627e-17
8677.99842 1.36289e-17
8680.00238 1.38506e-17
8681.99622 1.40014e-17
8684.00018 1.41355e-17
8686.00414 1.41697e-17
8687.99797 1.39355e-17
8690.00193 1.35087e-17
8691.99577 1.34136e-17
8693.99973 1.35241e-17
8696.00368 1.36634e-17
8697.99752 1.39677e-17
8700.00148 1.41858e-17
8701.99532 1.42469e-17
8703.99927 1.42525e-17
8706.00323 1.43014e-17
8707.99707 1.43558e-17
8710.00103 1.43931e-17
8712.00498 1.44279e-17
8713.99882 1.44365e-17
8716.00278 1.44160e-17
8717.99662 1.43858e-17
8720.00058 1.43604e-17
8722.00453 1.43245e-17
8723.99837 1.42447e-17
8726.00233 1.41365e-17
8727.99617 1.39856e-17
8730.00012 1.37180e-17
8732.00408 1.35753e-17
8733.99792 1.35675e-17
8736.00188 1.36162e-17
8737.99571 1.37038e-17
8739.99967 1.38318e-17
8742.00363 1.38357e-17
8743.99747 1.37443e-17
8746.00142 1.36569e-17
8748.00538 1.35485e-17
8749.99922 1.34081e-17
8752.00318 1.32071e-17
8753.99701 1.30047e-17
8756.00097 1.28697e-17
8757.99481 1.27683e-17
8759.99877 1.27589e-17
8762.00273 1.28916e-17
8763.99656 1.29385e-17
8766.00052 1.28489e-17
8768.00448 1.28967e-17
8769.99831 1.32774e-17
8772.00227 1.37383e-17
8773.99611 1.37955e-17
8776.00007 1.35656e-17
8778.00403 1.34391e-17
8779.99786 1.32057e-17
8782.00182 1.31447e-17
8783.99566 1.32972e-17
8785.99962 1.34694e-17
8788.00357 1.35761e-17
8789.99741 1.36530e-17
8792.00137 1.35963e-17
8794.00533 1.33161e-17
8795.99916 1.33019e-17
8798.00312 1.34711e-17
8799.99696 1.36387e-17
8802.00092 1.38616e-17
8804.00488 1.40237e-17
8805.99871 1.39605e-17
8808.00267 1.37377e-17
8809.99651 1.35597e-17
8812.00046 1.33234e-17
8814.00442 1.31460e-17
8815.99826 1.30638e-17
8818.00222 1.28944e-17
8819.99605 1.24732e-17
8822.00001 1.20665e-17
8824.00397 1.21332e-17
8825.99781 1.25450e-17
8828.00177 1.29250e-17
8829.99560 1.36470e-17
8831.99956 1.38968e-17
8834.00352 1.35960e-17
8835.99736 1.32957e-17
8838.00131 1.32105e-17
8840.00527 1.32315e-17
8841.99911 1.34809e-17
8844.00307 1.41281e-17
8845.99690 1.42473e-17
8848.00086 1.40277e-17
8850.00482 1.37411e-17
8851.99866 1.32701e-17
8854.00261 1.28456e-17
8855.99645 1.27130e-17
8858.00041 1.27552e-17
8860.00437 1.27487e-17
8861.99820 1.27564e-17
8864.00216 1.28245e-17
8865.99600 1.29492e-17
8867.99996 1.31051e-17
8870.00392 1.33395e-17
8871.99775 1.35551e-17
8874.00171 1.35648e-17
8875.99555 1.33962e-17
8877.99951 1.35111e-17
8880.00346 1.39832e-17
8881.99730 1.40872e-17
8884.00126 1.39927e-17
8885.99510 1.36328e-17
8887.99905 1.27397e-17
8890.00301 1.16957e-17
8891.99685 1.15631e-17
8894.00081 1.21313e-17
8896.00476 1.24617e-17
8897.99860 1.29418e-17
8900.00256 1.32628e-17
8901.99640 1.34373e-17
8904.00036 1.35131e-17
8906.00431 1.34817e-17
8907.99815 1.33564e-17
8910.00211 1.32982e-17
8911.99595 1.32066e-17
8913.99990 1.32398e-17
8916.00386 1.35344e-17
8917.99770 1.35560e-17
8920.00166 1.31486e-17
8921.99549 1.26302e-17
8923.99945 1.22740e-17
8926.00341 1.19434e-17
8927.99725 1.19159e-17
8930.00120 1.23346e-17
8931.99504 1.24216e-17
8933.99900 1.21901e-17
8936.00296 1.20908e-17
8937.99679 1.22992e-17
8940.00075 1.26258e-17
8942.00471 1.28562e-17
8943.99855 1.31220e-17
8946.00250 1.31366e-17
8947.99634 1.28565e-17
8950.00030 1.27015e-17
8952.00426 1.26427e-17
8953.99810 1.26035e-17
8956.00205 1.25794e-17
8957.99589 1.25587e-17
8959.99985 1.24041e-17
8962.00381 1.20502e-17
8963.99764 1.19520e-17
8966.00160 1.20683e-17
8968.00556 1.21171e-17
8969.99940 1.20513e-17
8972.00335 1.19980e-17
8973.99719 1.20661e-17
8976.00115 1.22099e-17
8978.00511 1.23004e-17
8979.99894 1.25119e-17
8982.00290 1.24030e-17
8983.99674 1.19375e-17
8986.00070 1.15352e-17
8988.00465 1.12171e-17
8989.99849 1.10197e-17
8992.00245 1.11697e-17
8993.99629 1.16548e-17
8996.00025 1.18895e-17
8998.00420 1.21148e-17
8999.99804 1.21547e-17
9002.00200 1.19636e-17
9003.99583 1.17399e-17
9005.99979 1.15210e-17
9008.00375 1.13202e-17
9009.99759 1.13606e-17
9012.00155 1.16163e-17
9013.99538 1.18350e-17
9015.99934 1.22503e-17
9018.00330 1.23823e-17
9019.99714 1.21013e-17
9022.00109 1.17967e-17
9024.00505 1.17701e-17
9025.99889 1.18734e-17
9028.00285 1.19086e-17
9029.99668 1.19119e-17
9032.00064 1.19926e-17
9034.00460 1.21059e-17
9035.99844 1.22914e-17
9038.00240 1.26163e-17
9039.99623 1.29483e-17
9042.00019 1.31006e-17
9044.00415 1.31403e-17
9045.99798 1.31788e-17
9048.00194 1.32672e-17
9049.99578 1.31198e-17
9051.99974 1.25961e-17
9054.00370 1.22301e-17
9055.99753 1.22924e-17
9058.00149 1.25132e-17
9059.99533 1.24799e-17
9061.99929 1.23318e-17
9064.00324 1.21580e-17
9065.99708 1.19219e-17
9068.00104 1.16520e-17
9070.00500 1.11925e-17
9071.99883 1.09156e-17
9074.00279 1.11718e-17
9075.99663 1.17333e-17
9078.00059 1.19016e-17
9080.00455 1.18042e-17
9081.99838 1.18769e-17
9084.00234 1.20482e-17
9085.99618 1.21519e-17
9088.00014 1.21647e-17
9090.00409 1.21372e-17
9091.99793 1.20893e-17
9094.00189 1.20050e-17
9095.99573 1.20230e-17
9097.99968 1.21725e-17
9100.00364 1.22024e-17
9101.99748 1.21953e-17
9104.00144 1.20876e-17
9105.99527 1.17755e-17
9107.99923 1.14260e-17
9110.00319 1.13712e-17
9111.99703 1.15191e-17
9114.00098 1.16320e-17
9116.00494 1.19244e-17
9117.99878 1.19526e-17
9120.00274 1.16785e-17
9121.99657 1.13682e-17
9124.00053 1.11313e-17
9126.00449 1.09165e-17
9127.99833 1.08033e-17
9130.00229 1.08273e-17
9131.99612 1.07249e-17
9134.00008 1.04929e-17
9136.00404 1.03774e-17
9137.99787 1.03695e-17
9140.00183 1.04641e-17
9141.99567 1.06949e-17
9143.99963 1.10482e-17
9146.00359 1.14029e-17
9147.99742 1.19619e-17
9150.00138 1.21764e-17
9151.99522 1.21730e-17
9153.99918 1.20040e-17
9156.00313 1.15217e-17
9157.99697 1.10174e-17
9160.00093 1.10280e-17
9162.00489 1.14140e-17
9163.99872 1.15466e-17
9166.00268 1.16529e-17
9167.99652 1.16488e-17
9170.00048 1.14780e-17
9172.00444 1.13284e-17
9173.99827 1.12925e-17
9176.00223 1.12988e-17
9177.99607 1.12649e-17
9180.00002 1.12381e-17
9182.00398 1.11402e-17
9183.99782 1.09000e-17
9186.00178 1.08085e-17
9187.99561 1.09398e-17
9189.99957 1.10581e-17
9192.00353 1.09548e-17
9193.99737 1.07431e-17
9196.00133 1.07797e-17
9198.00528 1.10614e-17
9199.99912 1.11739e-17
9202.00308 1.12003e-17
9203.99692 1.12480e-17
9206.00087 1.12885e-17
9208.00483 1.13881e-17
9209.99867 1.17014e-17
9212.00263 1.22093e-17
9213.99646 1.23804e-17
9216.00042 1.22179e-17
9218.00438 1.22811e-17
9219.99822 1.25640e-17
9222.00217 1.27576e-17
9223.99601 1.27284e-17
9225.99997 1.26107e-17
9228.00393 1.25935e-17
9229.99777 1.26441e-17
9232.00172 1.25478e-17
9233.99556 1.23237e-17
9235.99952 1.21198e-17
9238.00348 1.18551e-17
9239.99731 1.16839e-17
9242.00127 1.18080e-17
9244.00523 1.20702e-17
9245.99907 1.18403e-17
9248.00302 1.10833e-17
9249.99686 1.07760e-17
9252.00082 1.06942e-17
9254.00478 1.06478e-17
9255.99861 1.05945e-17
9258.00257 1.06323e-17
9259.99641 1.08929e-17
9262.00037 1.13400e-17
9264.00432 1.14937e-17
9265.99816 1.14427e-17
9268.00212 1.14250e-17
9269.99596 1.13590e-17
9271.99992 1.13093e-17
9274.00387 1.13032e-17
9275.99771 1.13068e-17
9278.00167 1.12881e-17
9279.99550 1.12825e-17
9281.99946 1.11389e-17
9284.00342 1.07596e-17
9285.99726 1.06080e-17
9288.00122 1.06696e-17
9289.99505 1.07917e-17
9291.99901 1.09462e-17
9294.00297 1.11250e-17
9295.99681 1.11375e-17
9298.00076 1.08750e-17
9300.00472 1.10890e-17
9301.99856 1.12891e-17
9304.00252 1.14891e-17
9305.99635 1.16892e-17
9308.00031 1.18892e-17
9310.00427 1.20892e-17
9311.99811 1.22892e-17
9314.00206 1.22890e-17
9315.99590 9.74332e-18
9317.99986 8.66521e-18
9320.00382 8.46857e-18
9321.99765 8.59317e-18
9324.00161 9.15666e-18
9325.99545 9.85475e-18
9327.99941 1.00540e-17
9330.00337 9.96910e-18
9331.99720 9.99144e-18
9334.00116 1.01212e-17
9335.99500 9.94956e-18
9337.99896 9.35095e-18
9340.00291 8.86490e-18
9341.99675 8.65322e-18
9344.00071 8.64477e-18
9346.00467 9.04309e-18
9347.99850 1.00438e-17
9350.00246 1.03354e-17
9351.99630 1.01302e-17
9354.00026 1.00097e-17
9356.00421 9.88852e-18
9357.99805 9.83541e-18
9360.00201 1.01005e-17
9361.99585 1.05068e-17
9363.99980 9.91578e-18
9366.00376 9.59381e-18
9367.99760 9.27183e-18
9370.00156 8.94986e-18
9372.00552 8.62794e-18
9373.99935 8.30600e-18
9376.00331 7.98408e-18
9377.99715 7.66217e-18
9380.00111 7.66200e-18
9381.99494 7.75028e-18
9383.99890 7.96980e-18
9386.00286 8.08249e-18
9387.99670 8.03769e-18
9390.00065 8.11763e-18
9392.00461 8.47284e-18
9393.99845 8.92481e-18
9396.00241 9.18873e-18
9397.99624 9.36639e-18
9400.00020 9.50356e-18
9402.00416 9.62492e-18
9403.99800 9.60812e-18
9406.00195 9.44531e-18
9407.99579 9.19709e-18
9409.99975 8.76174e-18
9412.00371 8.26883e-18
9413.99755 8.50423e-18
9416.00150 9.50894e-18
9417.99534 1.00329e-17
9419.99930 1.06517e-17
9422.00326 1.07553e-17
9423.99709 1.00536e-17
9426.00105 9.22387e-18
9428.00501 8.85799e-18
9429.99885 8.68241e-18
9432.00280 8.94954e-18
9433.99664 1.03329e-17
9436.00060 1.02842e-17
9438.00456 9.84662e-18
9439.99839 9.40908e-18
9442.00235 8.97155e-18
9443.99619 8.53405e-18
9446.00015 8.09656e-18
9448.00410 8.09638e-18
9449.99794 8.87055e-18
9452.00190 9.55405e-18
9453.99574 1.00585e-17
9455.99970 1.03983e-17
9458.00365 1.05750e-17
9459.99749 1.05612e-17
9462.00145 1.03929e-17
9463.99529 1.02063e-17
9465.99924 9.98829e-18
9468.00320 9.57823e-18
9469.99704 8.72218e-18
9472.00100 8.33919e-18
9474.00495 8.54615e-18
9475.99879 8.92535e-18
9478.00275 9.29319e-18
9479.99659 9.72857e-18
9482.00054 9.54146e-18
9484.00450 8.53766e-18
9485.99834 8.18848e-18
9488.00230 8.19435e-18
9489.99613 8.23925e-18
9492.00009 8.28957e-18
9494.00405 8.37792e-18
9495.99789 8.47641e-18
9498.00185 8.58718e-18
9499.99568 8.80038e-18
9501.99964 9.12932e-18
9504.00360 9.43548e-18
9505.99744 9.83806e-18
9508.00139 1.00944e-17
9509.99523 1.00696e-17
9511.99919 9.89487e-18
9514.00315 9.79149e-18
9515.99698 9.73695e-18
9518.00094 9.42500e-18
9520.00490 8.72193e-18
9521.99874 8.33387e-18
9524.00269 8.29751e-18
9525.99653 8.33940e-18
9528.00049 8.25056e-18
9530.00445 8.16080e-18
9531.99828 8.48727e-18
9534.00224 9.52370e-18
9535.99608 9.67935e-18
9538.00004 9.18452e-18
9540.00400 8.72938e-18
9541.99783 8.16056e-18
9544.00179 7.81524e-18
9545.99563 8.39735e-18
9547.99958 9.73632e-18
9550.00354 9.77516e-18
9551.99738 8.62548e-18
9554.00134 8.16779e-18
9555.99518 7.93851e-18
9557.99913 8.01506e-18
9560.00309 8.69800e-18
9561.99693 9.49719e-18
9564.00089 9.33274e-18
9566.00484 8.39944e-18
9567.99868 8.05034e-18
9570.00264 7.82381e-18
9571.99648 7.84208e-18
9574.00043 8.29704e-18
9576.00439 8.66191e-18
9577.99823 8.55798e-18
9580.00219 8.25410e-18
9581.99602 8.32803e-18
9583.99998 8.83564e-18
9586.00394 8.72202e-18
9587.99778 7.84688e-18
9590.00173 7.57076e-18
9591.99557 8.21225e-18
9593.99953 8.94143e-18
9596.00349 9.06324e-18
9597.99733 8.88600e-18
9600.00128 8.73288e-18
9602.00524 8.30704e-18
9603.99908 8.24350e-18
9606.00304 8.62136e-18
9607.99687 8.75562e-18
9610.00083 8.34757e-18
9611.99467 7.84285e-18
9613.99863 7.85098e-18
9616.00258 8.20480e-18
9617.99642 8.30922e-18
9620.00038 8.27643e-18
9622.00434 8.35542e-18
9623.99817 8.59182e-18
9626.00213 8.75157e-18
9627.99597 8.63055e-18
9629.99993 8.43988e-18
9632.00389 8.76036e-18
9633.99772 9.74752e-18
9636.00168 9.72852e-18
9637.99552 8.84915e-18
9639.99948 8.21324e-18
9642.00343 7.67480e-18
9643.99727 7.37087e-18
9646.00123 7.58001e-18
9648.00519 8.15184e-18
9649.99902 8.40213e-18
9652.00298 8.55413e-18
9653.99682 8.65015e-18
9656.00078 8.63466e-18
9658.00473 8.63279e-18
9659.99857 8.66437e-18
9662.00253 8.69994e-18
9663.99637 8.71035e-18
9666.00032 8.69258e-18
9668.00428 8.80801e-18
9669.99812 9.23577e-18
9672.00208 9.21685e-18
9673.99591 8.67110e-18
9675.99987 8.24024e-18
9678.00383 8.12192e-18
9679.99767 8.18560e-18
9682.00163 8.46237e-18
9683.99546 9.03276e-18
9685.99942 9.41172e-18
9688.00338 9.89177e-18
9689.99721 1.00274e-17
9692.00117 9.78101e-18
9694.00513 9.37325e-18
9695.99897 8.79002e-18
9698.00293 8.10015e-18
9699.99676 8.14880e-18
9702.00072 9.04613e-18
9704.00468 9.27711e-18
9705.99852 9.27308e-18
9708.00247 9.07660e-18
9709.99631 8.51238e-18
9712.00027 7.95849e-18
9714.00423 7.91417e-18
9715.99806 8.19759e-18
9718.00202 8.12644e-18
9719.99586 7.63669e-18
9721.99982 7.69625e-18
9724.00377 8.35538e-18
9725.99761 8.83746e-18
9728.00157 8.97329e-18
9729.99541 8.88480e-18
9731.99936 8.43987e-18
9734.00332 7.43940e-18
9735.99716 7.47678e-18
9738.00112 8.55523e-18
9739.99496 9.07423e-18
9741.99891 9.18096e-18
9744.00287 9.12669e-18
9745.99671 8.94574e-18
9748.00067 8.65033e-18
9750.00462 8.48936e-18
9751.99846 8.41149e-18
9754.00242 8.25691e-18
9755.99626 7.89134e-18
9758.00021 7.86295e-18
9760.00417 8.36704e-18
9761.99801 8.89834e-18
9764.00197 9.03088e-18
9765.99580 8.95939e-18
9767.99976 8.82396e-18
9770.00372 8.40666e-18
9771.99756 8.28592e-18
9774.00151 8.51719e-18
9775.99535 8.50745e-18
9777.99931 8.01731e-18
9780.00327 7.41909e-18
9781.99710 7.17469e-18
9784.00106 7.11889e-18
9785.99490 7.06557e-18
9787.99886 7.00309e-18
9790.00282 7.16191e-18
9791.99665 7.66800e-18
9794.00061 8.07808e-18
9796.00457 8.16865e-18
9797.99841 8.12144e-18
9800.00236 8.18488e-18
9801.99620 8.30571e-18
9804.00016 8.30033e-18
9806.00412 8.11058e-18
9807.99795 8.08697e-18
9810.00191 8.38633e-18
9811.99575 8.56086e-18
9813.99971 8.16270e-18
9816.00367 7.44689e-18
9817.99750 7.38901e-18
9820.00146 7.85694e-18
9822.00542 8.13647e-18
9823.99925 8.57352e-18
9826.00321 8.76733e-18
9827.99705 8.55486e-18
9830.00101 8.24901e-18
9832.00497 8.19588e-18
9833.99880 8.25833e-18
9836.00276 8.32324e-18
9837.99660 8.62545e-18
9840.00056 8.51317e-18
9842.00451 7.90733e-18
9843.99835 7.40519e-18
9846.00231 7.19059e-18
9847.99615 7.12540e-18
9850.00010 7.16609e-18
9852.00406 7.31777e-18
9853.99790 7.64405e-18
9856.00186 8.27130e-18
9857.99569 8.74166e-18
9859.99965 9.20259e-18
9862.00361 9.43441e-18
9863.99745 9.26468e-18
9866.00140 8.79575e-18
9867.99524 8.14426e-18
9869.99920 6.83358e-18
9872.00316 6.52289e-18
9873.99700 6.98454e-18
9876.00095 7.43962e-18
9878.00491 7.98966e-18
9879.99875 8.44164e-18
9882.00271 8.47462e-18
9883.99654 8.22341e-18
9886.00050 7.86594e-18
9888.00446 6.92631e-18
9889.99830 6.80037e-18
9892.00225 7.43300e-18
9893.99609 8.02104e-18
9896.00005 8.32242e-18
9898.00401 8.61044e-18
9899.99784 9.24070e-18
9902.00180 1.03257e-17
9903.99564 1.01554e-17
9905.99960 8.67018e-18
9908.00355 7.78421e-18
9909.99739 7.26154e-18
9912.00135 6.90740e-18
9913.99519 6.61735e-18
9915.99915 6.49587e-18
9918.00310 6.88554e-18
9919.99694 7.92065e-18
9922.00090 8.49643e-18
9924.00486 8.84068e-18
9925.99869 9.26927e-18
9928.00265 9.92496e-18
9929.99649 1.04351e-17
9932.00045 1.04875e-17
9934.00440 1.02285e-17
9935.99824 9.79743e-18
9938.00220 8.95767e-18
9939.99604 8.35401e-18
9941.99999 7.57538e-18
9944.00395 7.28959e-18
9945.99779 8.01396e-18
9948.00175 8.81576e-18
9949.99558 8.21554e-18
9951.99954 6.50533e-18
9954.00350 6.50958e-18
9955.99734 8.17155e-18
9958.00130 8.72037e-18
9959.99513 8.47842e-18
9961.99909 8.02597e-18
9964.00305 7.50256e-18
9965.99689 6.84933e-18
9968.00084 6.16935e-18
9970.00480 5.16244e-18
9971.99864 5.10521e-18
9974.00260 6.17425e-18
9975.99643 6.61740e-18
9978.00039 6.19426e-18
9980.00435 5.90605e-18
9981.99819 6.51275e-18
9984.00214 7.58224e-18
9985.99598 8.03562e-18
9987.99994 7.98869e-18
9990.00390 8.36672e-18
9991.99773 9.39852e-18
9994.00169 9.62934e-18
9995.99553 8.59956e-18
9997.99949 7.22562e-18
