# wavelength flux
3300.00407 2.27396e-18
3301.99845 2.27201e-18
3304.00285 2.50535e-18
3305.99723 1.36883e-18
3308.00163 2.00991e-18
3309.99601 1.79271e-18
3312.00041 1.92174e-18
3314.00481 2.70909e-18
3315.99918 2.60333e-18
3318.00358 2.56968e-18
3319.99796 1.91504e-18
3322.00236 1.86923e-18
3323.99674 2.51106e-18
3326.00114 1.64442e-18
3327.99552 1.36766e-18
3329.99992 2.07872e-18
3332.00432 2.32352e-18
3333.99870 2.58041e-18
3336.00310 2.06597e-18
3337.99747 1.88133e-18
3340.00187 1.72345e-18
3341.99625 2.16482e-18
3344.00065 2.05171e-18
3346.00505 2.64781e-18
3347.99943 2.64807e-18
3350.00383 1.99060e-18
3351.99821 2.10125e-18
3354.00261 2.14329e-18
3355.99699 2.50180e-18
3358.00139 2.28561e-18
3359.99576 2.20665e-18
3362.00016 1.94181e-18
3364.00456 1.93173e-18
3365.99894 1.86310e-18
3368.00334 2.38322e-18
3369.99772 2.53651e-18
3372.00212 1.11562e-18
3373.99650 1.23811e-18
3376.00090 2.24263e-18
3377.99528 2.29179e-18
3379.99968 1.79624e-18
3382.00408 1.46013e-18
3383.99845 2.57577e-18
3386.00285 2.46390e-18
3387.99723 2.52970e-18
3390.00163 2.31737e-18
3391.99601 1.97265e-18
3394.00041 1.98204e-18
3396.00481 2.05578e-18
3397.99919 2.05809e-18
3400.00359 2.78853e-18
3401.99797 1.98368e-18
3404.00237 2.58522e-18
3405.99674 2.48786e-18
3408.00114 2.06172e-18
3409.99552 2.42487e-18
3411.99992 2.28158e-18
3414.00432 2.20394e-18
3415.99870 1.75165e-18
3418.00310 2.24834e-18
3419.99748 3.15751e-18
3422.00188 2.72969e-18
3423.99626 2.38130e-18
3426.00066 2.20633e-18
3427.99503 2.34797e-18
3429.99943 2.41883e-18
3432.00383 2.48474e-18
3433.99821 2.61058e-18
3436.00261 2.43344e-18
3437.99699 2.48711e-18
3440.00139 3.00687e-18
3441.99577 2.71425e-18
3444.00017 2.56066e-18
3446.00457 2.36400e-18
3447.99895 2.53199e-18
3450.00335 2.58574e-18
3451.99772 3.01372e-18
3454.00212 2.68737e-18
3455.99650 2.56645e-18
3458.00090 2.77401e-18
3459.99528 2.86829e-18
3461.99968 3.23722e-18
3464.00408 3.54260e-18
3465.99846 3.12272e-18
3468.00286 3.19961e-18
3469.99724 3.33577e-18
3472.00164 2.77857e-18
3473.99601 3.23337e-18
3476.00041 2.99932e-18
3478.00481 3.15567e-18
3479.99919 3.22194e-18
3482.00359 3.58701e-18
3483.99797 3.65231e-18
3486.00237 3.44668e-18
3487.99675 3.62922e-18
3490.00115 3.39186e-18
3491.99553 3.56713e-18
3493.99993 3.73393e-18
3496.00433 3.91051e-18
3497.99870 3.56996e-18
3500.00310 3.71822e-18
3501.99748 3.75517e-18
3504.00188 4.10543e-18
3505.99626 3.78515e-18
3508.00066 3.98803e-18
3509.99504 4.27856e-18
3511.99944 4.54357e-18
3514.00384 4.51645e-18
3515.99822 4.30383e-18
3518.00262 4.28275e-18
3519.99699 4.37450e-18
3522.00139 4.85441e-18
3523.99577 5.08182e-18
3526.00017 5.19211e-18
3528.00457 5.20803e-18
3529.99895 5.45854e-18
3532.00335 5.84754e-18
3533.99773 5.12385e-18
3536.00213 5.35521e-18
3537.99651 5.35547e-18
3540.00091 4.97386e-18
3541.99528 5.30343e-18
3543.99968 5.98803e-18
3546.00408 5.77931e-18
3547.99846 6.18210e-18
3550.00286 5.76000e-18
3551.99724 6.16911e-18
3554.00164 6.00747e-18
3555.99602 6.19495e-18
3558.00042 5.97835e-18
3560.00482 6.36648e-18
3561.99920 6.59304e-18
3564.00360 6.38823e-18
3565.99797 6.22903e-18
3568.00237 6.42259e-18
3569.99675 6.30892e-18
3572.00115 5.90580e-18
3573.99553 6.46441e-18
3575.99993 6.48106e-18
3578.00433 6.28938e-18
3579.99871 6.81817e-18
3582.00311 6.59487e-18
3583.99749 6.09561e-18
3586.00189 5.80590e-18
3587.99626 6.73022e-18
3590.00066 6.70645e-18
3591.99504 7.27483e-18
3593.99944 6.88155e-18
3596.00384 6.78701e-18
3597.99822 7.09887e-18
3600.00262 7.24405e-18
3601.99700 7.35258e-18
3604.00140 7.40244e-18
3605.99578 7.35657e-18
3608.00018 7.34897e-18
3610.00458 6.99288e-18
3611.99895 7.28147e-18
3614.00335 7.39384e-18
3615.99773 7.32243e-18
3618.00213 7.56386e-18
3619.99651 7.54759e-18
3622.00091 7.56253e-18
3623.99529 7.36195e-18
3625.99969 7.04154e-18
3628.00409 7.98071e-18
3629.99847 7.37742e-18
3632.00287 6.95844e-18
3633.99724 7.45224e-18
3636.00164 7.42911e-18
3637.99602 7.50316e-18
3640.00042 7.13358e-18
3642.00482 7.08225e-18
3643.99920 7.31137e-18
3646.00360 7.15193e-18
3647.99798 7.19133e-18
3650.00238 6.31565e-18
3651.99676 6.83152e-18
3654.00116 7.24641e-18
3655.99553 7.58116e-18
3657.99993 8.24165e-18
3660.00433 8.19075e-18
3661.99871 7.95532e-18
3664.00311 7.85721e-18
3665.99749 7.61982e-18
3668.00189 8.69490e-18
3669.99627 8.20673e-18
3672.00067 7.95997e-18
3673.99505 8.21935e-18
3675.99945 8.74589e-18
3678.00385 8.84392e-18
3679.99822 8.84938e-18
3682.00262 8.69714e-18
3683.99700 8.87653e-18
3686.00140 8.76226e-18
3687.99578 8.93369e-18
3690.00018 9.02648e-18
3692.00458 9.23734e-18
3693.99896 9.32900e-18
3696.00336 9.30929e-18
3697.99774 9.11775e-18
3700.00214 9.10454e-18
3701.99651 9.34727e-18
3704.00091 9.31918e-18
3705.99529 8.99548e-18
3707.99969 8.90316e-18
3710.00409 9.07898e-18
3711.99847 8.93764e-18
3714.00287 9.09541e-18
3715.99725 8.81574e-18
3718.00165 8.90857e-18
3719.99603 8.94414e-18
3722.00043 8.73425e-18
3724.00483 8.65271e-18
3725.99920 8.84727e-18
3728.00360 8.88498e-18
3729.99798 8.39643e-18
3732.00238 8.38328e-18
3733.99676 8.25803e-18
3736.00116 8.64971e-18
3737.99554 8.20006e-18
3739.99994 7.88428e-18
3742.00434 7.78881e-18
3743.99872 8.25767e-18
3746.00312 8.34876e-18
3747.99749 7.84898e-18
3750.00189 7.72158e-18
3751.99627 8.08405e-18
3754.00067 8.08769e-18
3755.99505 8.51569e-18
3757.99945 8.36249e-18
3760.00385 8.22158e-18
3761.99823 7.71762e-18
3764.00263 7.78884e-18
3765.99701 7.56361e-18
3768.00141 7.62727e-18
3769.99578 7.84920e-18
3772.00018 7.57727e-18
3774.00458 7.87089e-18
3775.99896 7.78526e-18
3778.00336 7.53205e-18
3779.99774 7.47116e-18
3782.00214 7.37344e-18
3783.99652 7.50683e-18
3786.00092 7.58692e-18
3787.99530 7.24238e-18
3789.99970 7.15794e-18
3792.00410 7.32305e-18
3793.99847 7.55437e-18
3796.00287 7.73084e-18
3797.99725 7.38618e-18
3800.00165 7.13246e-18
3801.99603 7.72636e-18
3804.00043 8.39645e-18
3806.00483 6.54359e-18
3807.99921 7.54632e-18
3810.00361 7.90702e-18
3811.99799 7.81725e-18
3814.00239 7.75804e-18
3815.99676 7.64017e-18
3818.00116 7.82545e-18
3819.99554 7.85841e-18
3821.99994 8.04484e-18
3824.00434 8.28527e-18
3825.99872 8.52797e-18
3828.00312 8.38745e-18
3829.99750 8.60293e-18
3832.00190 8.51828e-18
3833.99628 8.66309e-18
3836.00068 8.67616e-18
3837.99505 8.22224e-18
3839.99945 8.72061e-18
3842.00385 9.16278e-18
3843.99823 9.23465e-18
3846.00263 9.37545e-18
3847.99701 9.44051e-18
3850.00141 9.35161e-18
3851.99579 9.34087e-18
3854.00019 9.77711e-18
3856.00459 1.00645e-17
3857.99897 1.00482e-17
3860.00337 1.01638e-17
3861.99774 1.02831e-17
3864.00214 1.04942e-17
3865.99652 1.05666e-17
3868.00092 1.06689e-17
3869.99530 1.11169e-17
3871.99970 1.12249e-17
3874.00410 1.10421e-17
3875.99848 1.10560e-17
3878.00288 1.12751e-17
3879.99726 1.13771e-17
3882.00166 1.11929e-17
3883.99603 1.13498e-17
3886.00043 1.12435e-17
3888.00483 1.16834e-17
3889.99921 1.18132e-17
3892.00361 1.17887e-17
3893.99799 1.18808e-17
3896.00239 1.21312e-17
3897.99677 1.20844e-17
3900.00117 1.18539e-17
3901.99555 1.20496e-17
3903.99995 1.22952e-17
3906.00435 1.25232e-17
3907.99872 1.25530e-17
3910.00312 1.28304e-17
3911.99750 1.30804e-17
3914.00190 1.27194e-17
3915.99628 1.25963e-17
3918.00068 1.22270e-17
3920.00508 1.21419e-17
3921.99946 1.28085e-17
3924.00386 1.28647e-17
3925.99824 1.28391e-17
3928.00264 1.26149e-17
3929.99701 1.28158e-17
3932.00141 1.25011e-17
3933.99579 1.23861e-17
3936.00019 1.30780e-17
3938.00459 1.28460e-17
3939.99897 1.27906e-17
3942.00337 1.27171e-17
3943.99775 1.27058e-17
3946.00215 1.30765e-17
3947.99653 1.32118e-17
3950.00093 1.34597e-17
3951.99530 1.37412e-17
3953.99970 1.35535e-17
3956.00410 1.34637e-17
3957.99848 1.37063e-17
3960.00288 1.38766e-17
3961.99726 1.38778e-17
3964.00166 1.39114e-17
3965.99604 1.36363e-17
3968.00044 1.33483e-17
3970.00484 1.36982e-17
3971.99922 1.40623e-17
3974.00362 1.41763e-17
3975.99799 1.39247e-17
3978.00239 1.37639e-17
3979.99677 1.39328e-17
3982.00117 1.43262e-17
3983.99555 1.44381e-17
3985.99995 1.43881e-17
3988.00435 1.42143e-17
3989.99873 1.42576e-17
3992.00313 1.42749e-17
3993.99751 1.42473e-17
3996.00191 1.42954e-17
3997.99628 1.42509e-17
4000.00068 1.41553e-17
4001.99506 1.39910e-17
4003.99946 1.40853e-17
4006.00386 1.40286e-17
4007.99824 1.43382e-17
4010.00264 1.44297e-17
4011.99702 1.42713e-17
4014.00142 1.43165e-17
4015.99580 1.40209e-17
4018.00020 1.40360e-17
4020.00460 1.40368e-17
4021.99897 1.38799e-17
4024.00337 1.38192e-17
4025.99775 1.37488e-17
4028.00215 1.37251e-17
4029.99653 1.37494e-17
4032.00093 1.39140e-17
4033.99531 1.37182e-17
4035.99971 1.35150e-17
4038.00411 1.32418e-17
4039.99849 1.35324e-17
4042.00289 1.33437e-17
4043.99726 1.36091e-17
4046.00166 1.36998e-17
4047.99604 1.38814e-17
4050.00044 1.34545e-17
4052.00484 1.30361e-17
4053.99922 1.31986e-17
4056.00362 1.33539e-17
4057.99800 1.33999e-17
4060.00240 1.31276e-17
4061.99678 1.32150e-17
4064.00118 1.33095e-17
4065.99555 1.33863e-17
4067.99995 1.31221e-17
4070.00435 1.32117e-17
4071.99873 1.31949e-17
4074.00313 1.30520e-17
4075.99751 1.31907e-17
4078.00191 1.33226e-17
4079.99629 1.32180e-17
4082.00069 1.32867e-17
4083.99507 1.34353e-17
4085.99947 1.31827e-17
4088.00387 1.31981e-17
4089.99824 1.33982e-17
4092.00264 1.31610e-17
4093.99702 1.32298e-17
4096.00142 1.31698e-17
4097.99580 1.27941e-17
4100.00020 1.29464e-17
4102.00460 1.30896e-17
4103.99898 1.32254e-17
4106.00338 1.32004e-17
4107.99776 1.33009e-17
4110.00216 1.33996e-17
4111.99653 1.34680e-17
4114.00093 1.32973e-17
4115.99531 1.34657e-17
4117.99971 1.35324e-17
4120.00411 1.36074e-17
4121.99849 1.37332e-17
4124.00289 1.37378e-17
4125.99727 1.37237e-17
4128.00167 1.35820e-17
4129.99605 1.39174e-17
4132.00045 1.39172e-17
4134.00485 1.37408e-17
4135.99922 1.38182e-17
4138.00362 1.40636e-17
4139.99800 1.38561e-17
4142.00240 1.38601e-17
4143.99678 1.38966e-17
4146.00118 1.38692e-17
4147.99556 1.41123e-17
4149.99996 1.38636e-17
4152.00436 1.39651e-17
4153.99874 1.39693e-17
4156.00314 1.38893e-17
4157.99751 1.39516e-17
4160.00191 1.40732e-17
4161.99629 1.41655e-17
4164.00069 1.39608e-17
4165.99507 1.39879e-17
4167.99947 1.40233e-17
4170.00387 1.42496e-17
4171.99825 1.44235e-17
4174.00265 1.44469e-17
4175.99703 1.45068e-17
4178.00143 1.44380e-17
4179.99580 1.44082e-17
4182.00020 1.44463e-17
4184.00460 1.41805e-17
4185.99898 1.42242e-17
4188.00338 1.44382e-17
4189.99776 1.44944e-17
4192.00216 1.49601e-17
4193.99654 1.47861e-17
4196.00094 1.46672e-17
4197.99532 1.47565e-17
4199.99972 1.49970e-17
4202.00412 1.49622e-17
4203.99849 1.48012e-17
4206.00289 1.49755e-17
4207.99727 1.49867e-17
4210.00167 1.52337e-17
4211.99605 1.52532e-17
4214.00045 1.52089e-17
4216.00485 1.54444e-17
4217.99923 1.53877e-17
4220.00363 1.54303e-17
4221.99801 1.55227e-17
4224.00241 1.54786e-17
4225.99678 1.54358e-17
4228.00118 1.56319e-17
4229.99556 1.57741e-17
4231.99996 1.56034e-17
4234.00436 1.55616e-17
4235.99874 1.55398e-17
4238.00314 1.57685e-17
4239.99752 1.58768e-17
4242.00192 1.57146e-17
4243.99630 1.57966e-17
4246.00070 1.61403e-17
4247.99507 1.60605e-17
4249.99947 1.58239e-17
4252.00387 1.59569e-17
4253.99825 1.58734e-17
4256.00265 1.58930e-17
4257.99703 1.55711e-17
4260.00143 1.56947e-17
4261.99581 1.60139e-17
4264.00021 1.59661e-17
4266.00461 1.64256e-17
4267.99899 1.62997e-17
4270.00339 1.63200e-17
4271.99776 1.66314e-17
4274.00216 1.65714e-17
4275.99654 1.66036e-17
4278.00094 1.64250e-17
4279.99532 1.66734e-17
4281.99972 1.65585e-17
4284.00412 1.69315e-17
4285.99850 1.68659e-17
4288.00290 1.68925e-17
4289.99728 1.70838e-17
4292.00168 1.70378e-17
4293.99605 1.72441e-17
4296.00045 1.71576e-17
4297.99483 1.72413e-17
4299.99923 1.72637e-17
4302.00363 1.73386e-17
4303.99801 1.72229e-17
4306.00241 1.73020e-17
4307.99679 1.74128e-17
4310.00119 1.72379e-17
4311.99557 1.72245e-17
4313.99997 1.72541e-17
4316.00437 1.72322e-17
4317.99874 1.76094e-17
4320.00314 1.77080e-17
4321.99752 1.74831e-17
4324.00192 1.73231e-17
4325.99630 1.75065e-17
4328.00070 1.77054e-17
4330.00510 1.75910e-17
4331.99948 1.73654e-17
4334.00388 1.75404e-17
4335.99826 1.75222e-17
4338.00266 1.74171e-17
4339.99703 1.76625e-17
4342.00143 1.77480e-17
4343.99581 1.77623e-17
4346.00021 1.76609e-17
4348.00461 1.75316e-17
4349.99899 1.74477e-17
4352.00339 1.75222e-17
4353.99777 1.72256e-17
4356.00217 1.72582e-17
4357.99655 1.73046e-17
4360.00095 1.85037e-17
4361.99532 1.85410e-17
4363.99972 1.76672e-17
4366.00412 1.75853e-17
4367.99850 1.74125e-17
4370.00290 1.78714e-17
4371.99728 1.79484e-17
4374.00168 1.78243e-17
4375.99606 1.80100e-17
4378.00046 1.81035e-17
4380.00486 1.82618e-17
4381.99924 1.81922e-17
4384.00364 1.81675e-17
4385.99801 1.85309e-17
4388.00241 1.86545e-17
4389.99679 1.87889e-17
4392.00119 1.89382e-17
4393.99557 1.90619e-17
4395.99997 1.91484e-17
4398.00437 1.92682e-17
4399.99875 1.93595e-17
4402.00315 1.94146e-17
4403.99753 1.96109e-17
4406.00193 1.99034e-17
4407.99630 1.97708e-17
4410.00070 1.96877e-17
4411.99508 1.96198e-17
4413.99948 1.98016e-17
4416.00388 1.99980e-17
4417.99826 2.01865e-17
4420.00266 2.01570e-17
4421.99704 1.98857e-17
4424.00144 1.96975e-17
4425.99582 1.99077e-17
4428.00022 2.01440e-17
4430.00462 2.06632e-17
4431.99899 2.10028e-17
4434.00339 2.06821e-17
4435.99777 2.04720e-17
4438.00217 2.08229e-17
4439.99655 2.10604e-17
4442.00095 2.14006e-17
4443.99533 2.16053e-17
4445.99973 2.12993e-17
4448.00413 2.15428e-17
4449.99851 2.20751e-17
4452.00291 2.18791e-17
4453.99728 2.21205e-17
4456.00168 2.24995e-17
4457.99606 2.26518e-17
4460.00046 2.28006e-17
4462.00486 2.28211e-17
4463.99924 2.30391e-17
4466.00364 2.31623e-17
4467.99802 2.32146e-17
4470.00242 2.35282e-17
4471.99680 2.36812e-17
4474.00120 2.38023e-17
4475.99557 2.36462e-17
4477.99997 2.37063e-17
4480.00437 2.38967e-17
4481.99875 2.40283e-17
4484.00315 2.39941e-17
4485.99753 2.42294e-17
4488.00193 2.41887e-17
4489.99631 2.44772e-17
4492.00071 2.48743e-17
4493.99509 2.49866e-17
4495.99949 2.48759e-17
4498.00389 2.50395e-17
4499.99826 2.53459e-17
4502.00266 2.52273e-17
4503.99704 2.51288e-17
4506.00144 2.52618e-17
4507.99582 2.53663e-17
4510.00022 2.56005e-17
4512.00462 2.57003e-17
4513.99900 2.58014e-17
4516.00340 2.56699e-17
4517.99778 2.57564e-17
4520.00218 2.60638e-17
4521.99655 2.61339e-17
4524.00095 2.62201e-17
4525.99533 2.61786e-17
4527.99973 2.62615e-17
4530.00413 2.63754e-17
4531.99851 2.63347e-17
4534.00291 2.64811e-17
4535.99729 2.67092e-17
4538.00169 2.68017e-17
4539.99607 2.66845e-17
4542.00047 2.67707e-17
4543.99484 2.71278e-17
4545.99924 2.71010e-17
4548.00364 2.70865e-17
4549.99802 2.70444e-17
4552.00242 2.71298e-17
4553.99680 2.70843e-17
4556.00120 2.71386e-17
4557.99558 2.72088e-17
4559.99998 2.71631e-17
4562.00438 2.73424e-17
4563.99876 2.74490e-17
4566.00316 2.72266e-17
4567.99753 2.73950e-17
4570.00193 2.73247e-17
4571.99631 2.72821e-17
4574.00071 2.72370e-17
4576.00511 2.73683e-17
4577.99949 2.73650e-17
4580.00389 2.75055e-17
4581.99827 2.75545e-17
4584.00267 2.71636e-17
4585.99705 2.74613e-17
4588.00145 2.74456e-17
4589.99582 2.72500e-17
4592.00022 2.70401e-17
4594.00462 2.72501e-17
4595.99900 2.77900e-17
4598.00340 2.74776e-17
4599.99778 2.72205e-17
4602.00218 2.74064e-17
4603.99656 2.73317e-17
4606.00096 2.72541e-17
4607.99534 2.72573e-17
4609.99974 2.70345e-17
4612.00414 2.69168e-17
4613.99851 2.69030e-17
4616.00291 2.69916e-17
4617.99729 2.69449e-17
4620.00169 2.68849e-17
4621.99607 2.67825e-17
4624.00047 2.68768e-17
4626.00487 2.66950e-17
4627.99925 2.64124e-17
4630.00365 2.62904e-17
4631.99803 2.65522e-17
4634.00243 2.61943e-17
4635.99680 2.59993e-17
4638.00120 2.59160e-17
4639.99558 2.57073e-17
4641.99998 2.56515e-17
4644.00438 2.56527e-17
4645.99876 2.54549e-17
4648.00316 2.54350e-17
4649.99754 2.54567e-17
4652.00194 2.49090e-17
4653.99632 2.49917e-17
4656.00072 2.48843e-17
4657.99509 2.47177e-17
4659.99949 2.45334e-17
4662.00389 2.46038e-17
4663.99827 2.42976e-17
4666.00267 2.40579e-17
4667.99705 2.38982e-17
4670.00145 2.39860e-17
4671.99583 2.36668e-17
4674.00023 2.37054e-17
4676.00463 2.36589e-17
4677.99901 2.32763e-17
4680.00341 2.29390e-17
4681.99778 2.26782e-17
4684.00218 2.26789e-17
4685.99656 2.26030e-17
4688.00096 2.25142e-17
4689.99534 2.22902e-17
4691.99974 2.21385e-17
4694.00414 2.23309e-17
4695.99852 2.21460e-17
4698.00292 2.19538e-17
4699.99730 2.17626e-17
4702.00170 2.13592e-17
4703.99607 2.10156e-17
4706.00047 2.10708e-17
4708.00487 2.12957e-17
4709.99925 2.11968e-17
4712.00365 2.11794e-17
4713.99803 2.11278e-17
4716.00243 2.10088e-17
4717.99681 2.07842e-17
4720.00121 2.09144e-17
4721.99559 2.07825e-17
4723.99999 2.06076e-17
4726.00439 2.08474e-17
4727.99876 2.07561e-17
4730.00316 2.05683e-17
4731.99754 2.06824e-17
4734.00194 2.08141e-17
4735.99632 2.09243e-17
4738.00072 2.07241e-17
4739.99510 2.06618e-17
4741.99950 2.07852e-17
4744.00390 2.05525e-17
4745.99828 2.04249e-17
4748.00268 2.06262e-17
4749.99705 2.04117e-17
4752.00145 2.02896e-17
4753.99583 2.03291e-17
4756.00023 2.02575e-17
4758.00463 2.00581e-17
4759.99901 1.98164e-17
4762.00341 1.98075e-17
4763.99779 1.98513e-17
4766.00219 1.97223e-17
4767.99657 1.96823e-17
4770.00097 1.94301e-17
4771.99534 1.93160e-17
4773.99974 1.94440e-17
4776.00414 1.92919e-17
4777.99852 1.93048e-17
4780.00292 1.94929e-17
4781.99730 1.99165e-17
4784.00170 1.96648e-17
4785.99608 1.96550e-17
4788.00048 1.97152e-17
4789.99486 1.96292e-17
4791.99926 1.97568e-17
4794.00366 2.00972e-17
4795.99803 1.99907e-17
4798.00243 1.98316e-17
4799.99681 2.00250e-17
4802.00121 2.04335e-17
4803.99559 2.04268e-17
4805.99999 2.03914e-17
4808.00439 2.04838e-17
4809.99877 2.03206e-17
4812.00317 2.04910e-17
4813.99755 2.05374e-17
4816.00195 2.05487e-17
4817.99632 2.05906e-17
4820.00072 2.03851e-17
4822.00512 2.05741e-17
4823.99950 2.06516e-17
4826.00390 2.05561e-17
4827.99828 2.04828e-17
4830.00268 2.05238e-17
4831.99706 2.06103e-17
4834.00146 2.06592e-17
4835.99584 2.06231e-17
4838.00024 2.03463e-17
4840.00464 2.01642e-17
4841.99901 2.02886e-17
4844.00341 2.04358e-17
4845.99779 2.05146e-17
4848.00219 2.03715e-17
4849.99657 2.04261e-17
4852.00097 2.04233e-17
4853.99535 2.03252e-17
4855.99975 2.03403e-17
4858.00415 2.02975e-17
4859.99853 2.00902e-17
4862.00293 2.03614e-17
4863.99730 2.04007e-17
4866.00170 2.03836e-17
4867.99608 2.06105e-17
4870.00048 2.07445e-17
4872.00488 2.07877e-17
4873.99926 2.08078e-17
4876.00366 2.08711e-17
4877.99804 2.09884e-17
4880.00244 2.10172e-17
4881.99682 2.10737e-17
4884.00122 2.12700e-17
4885.99559 2.12895e-17
4887.99999 2.12797e-17
4890.00439 2.14486e-17
4891.99877 2.14163e-17
4894.00317 2.12942e-17
4895.99755 2.14214e-17
4898.00195 2.13333e-17
4899.99633 2.14412e-17
4902.00073 2.15154e-17
4903.99511 2.13053e-17
4905.99951 2.13032e-17
4908.00391 2.14682e-17
4909.99828 2.13637e-17
4912.00268 2.12132e-17
4913.99706 2.13252e-17
4916.00146 2.14019e-17
4917.99584 2.12582e-17
4920.00024 2.10190e-17
4922.00464 2.11724e-17
4923.99902 2.13583e-17
4926.00342 2.12182e-17
4927.99780 2.13635e-17
4930.00220 2.15289e-17
4931.99657 2.13290e-17
4934.00097 2.14191e-17
4935.99535 2.15395e-17
4937.99975 2.14537e-17
4940.00415 2.13153e-17
4941.99853 2.14227e-17
4944.00293 2.15409e-17
4945.99731 2.14050e-17
4948.00171 2.13433e-17
4949.99609 2.13361e-17
4952.00049 2.12730e-17
4953.99486 2.14097e-17
4955.99926 2.13937e-17
4958.00366 2.15658e-17
4959.99804 2.16053e-17
4962.00244 2.16259e-17
4963.99682 2.15688e-17
4966.00122 2.15260e-17
4967.99560 2.14817e-17
4970.00000 2.13338e-17
4972.00440 2.13282e-17
4973.99878 2.15842e-17
4976.00318 2.16093e-17
4977.99755 2.15199e-17
4980.00195 2.15956e-17
4981.99633 2.14599e-17
4984.00073 2.15142e-17
4985.99511 2.18119e-17
4987.99951 2.17415e-17
4990.00391 2.15311e-17
4991.99829 2.16069e-17
4994.00269 2.15805e-17
4995.99707 2.13485e-17
4998.00147 2.12336e-17
4999.99584 2.12540e-17
5002.00024 2.14087e-17
5004.00464 2.15271e-17
5005.99902 2.13433e-17
5008.00342 2.16639e-17
5009.99780 2.16124e-17
5012.00220 2.14337e-17
5013.99658 2.13516e-17
5016.00098 2.14369e-17
5017.99536 2.16484e-17
5019.99976 2.13357e-17
5022.00416 2.13839e-17
5023.99853 2.17808e-17
5026.00293 2.16687e-17
5027.99731 2.17995e-17
5030.00171 2.17626e-17
5031.99609 2.19280e-17
5034.00049 2.19225e-17
5036.00489 2.18715e-17
5037.99927 2.18677e-17
5040.00367 2.21326e-17
5041.99805 2.23095e-17
5044.00245 2.22821e-17
5045.99682 2.22346e-17
5048.00122 2.23559e-17
5049.99560 2.24303e-17
5052.00000 2.24767e-17
5054.00440 2.25045e-17
5055.99878 2.25582e-17
5058.00318 2.24752e-17
5059.99756 2.24998e-17
5062.00196 2.27842e-17
5063.99634 2.26705e-17
5066.00074 2.26268e-17
5068.00514 2.25559e-17
5069.99951 2.26624e-17
5072.00391 2.29175e-17
5073.99829 2.30772e-17
5076.00269 2.29011e-17
5077.99707 2.29200e-17
5080.00147 2.30006e-17
5081.99585 2.32254e-17
5084.00025 2.31790e-17
5086.00465 2.31546e-17
5087.99903 2.34774e-17
5090.00343 2.37995e-17
5091.99780 2.36594e-17
5094.00220 2.33151e-17
5095.99658 2.33283e-17
5098.00098 2.36358e-17
5099.99536 2.35492e-17
5101.99976 2.36570e-17
5104.00416 2.37253e-17
5105.99854 2.33411e-17
5108.00294 2.35497e-17
5109.99732 2.38400e-17
5112.00172 2.36713e-17
5113.99609 2.36244e-17
5116.00049 2.38067e-17
5118.00489 2.38455e-17
5119.99927 2.40457e-17
5122.00367 2.41473e-17
5123.99805 2.42374e-17
5126.00245 2.44234e-17
5127.99683 2.44854e-17
5130.00123 2.45861e-17
5131.99561 2.45423e-17
5134.00001 2.44769e-17
5136.00441 2.47866e-17
5137.99878 2.50683e-17
5140.00318 2.48843e-17
5141.99756 2.48600e-17
5144.00196 2.48130e-17
5145.99634 2.48328e-17
5148.00074 2.47943e-17
5149.99512 2.48060e-17
5151.99952 2.49346e-17
5154.00392 2.50660e-17
5155.99830 2.52939e-17
5158.00270 2.52474e-17
5159.99707 2.52201e-17
5162.00147 2.54840e-17
5163.99585 2.56673e-17
5166.00025 2.57789e-17
5168.00465 2.59744e-17
5169.99903 2.57983e-17
5172.00343 2.59667e-17
5173.99781 2.63161e-17
5176.00221 2.62937e-17
5177.99659 2.64105e-17
5180.00099 2.64780e-17
5181.99536 2.65650e-17
5183.99976 2.65516e-17
5186.00416 2.67758e-17
5187.99854 2.67474e-17
5190.00294 2.68851e-17
5191.99732 2.71017e-17
5194.00172 2.71562e-17
5195.99610 2.71532e-17
5198.00050 2.72923e-17
5199.99488 2.72821e-17
5201.99928 2.73726e-17
5204.00368 2.75605e-17
5205.99805 2.76448e-17
5208.00245 2.74944e-17
5209.99683 2.77430e-17
5212.00123 2.82257e-17
5213.99561 2.82057e-17
5216.00001 2.82226e-17
5218.00441 2.83669e-17
5219.99879 2.83241e-17
5222.00319 2.81172e-17
5223.99757 2.82945e-17
5226.00197 2.84107e-17
5227.99634 2.89905e-17
5230.00074 2.89918e-17
5231.99512 2.90800e-17
5233.99952 2.91410e-17
5236.00392 2.90335e-17
5237.99830 2.89576e-17
5240.00270 2.90767e-17
5241.99708 2.90727e-17
5244.00148 2.91843e-17
5245.99586 2.91410e-17
5248.00026 2.90750e-17
5250.00466 2.90671e-17
5251.99903 2.89918e-17
5254.00343 2.90356e-17
5255.99781 2.90347e-17
5258.00221 2.91272e-17
5259.99659 2.92885e-17
5262.00099 2.96251e-17
5263.99537 2.97214e-17
5265.99977 2.97020e-17
5268.00417 2.98124e-17
5269.99855 2.96116e-17
5272.00295 2.95117e-17
5273.99732 2.97358e-17
5276.00172 2.96799e-17
5277.99610 2.95352e-17
5280.00050 2.95379e-17
5282.00490 2.95647e-17
5283.99928 2.97917e-17
5286.00368 2.97543e-17
5287.99806 2.98558e-17
5290.00246 2.96846e-17
5291.99684 2.97701e-17
5294.00124 2.98389e-17
5295.99561 2.96889e-17
5298.00001 2.96031e-17
5300.00441 2.97244e-17
5301.99879 2.98108e-17
5304.00319 2.98305e-17
5305.99757 2.97787e-17
5308.00197 2.97716e-17
5309.99635 2.98804e-17
5312.00075 2.99235e-17
5313.99513 2.98619e-17
5315.99953 2.97487e-17
5318.00393 2.97064e-17
5319.99830 2.97393e-17
5322.00270 2.96637e-17
5323.99708 2.97797e-17
5326.00148 2.99367e-17
5327.99586 2.99077e-17
5330.00026 2.99024e-17
5332.00466 2.97295e-17
5333.99904 2.95100e-17
5336.00344 2.94856e-17
5337.99782 2.94927e-17
5340.00222 2.95293e-17
5341.99659 2.95841e-17
5344.00099 2.95156e-17
5345.99537 2.95934e-17
5347.99977 2.96312e-17
5350.00417 2.95306e-17
5351.99855 2.95324e-17
5354.00295 2.97263e-17
5355.99733 3.00723e-17
5358.00173 3.02777e-17
5359.99611 3.02459e-17
5362.00051 3.02205e-17
5364.00491 3.01884e-17
5365.99928 3.00563e-17
5368.00368 2.99852e-17
5369.99806 3.01180e-17
5372.00246 2.98490e-17
5373.99684 2.98013e-17
5376.00124 2.97809e-17
5377.99562 2.98021e-17
5380.00002 2.98325e-17
5382.00442 2.99644e-17
5383.99880 3.02372e-17
5386.00320 3.04704e-17
5387.99757 3.06405e-17
5390.00197 3.07588e-17
5391.99635 3.07673e-17
5394.00075 3.06454e-17
5395.99513 3.05837e-17
5397.99953 3.05039e-17
5400.00393 3.04638e-17
5401.99831 3.04839e-17
5404.00271 3.05175e-17
5405.99709 3.05148e-17
5408.00149 3.04991e-17
5409.99586 3.04572e-17
5412.00026 3.03639e-17
5414.00466 3.03112e-17
5415.99904 3.02917e-17
5418.00344 3.02894e-17
5419.99782 3.03098e-17
5422.00222 3.03513e-17
5423.99660 3.03112e-17
5426.00100 3.01443e-17
5427.99538 3.01158e-17
5429.99978 3.02233e-17
5432.00418 3.03027e-17
5433.99855 3.02751e-17
5436.00295 3.02096e-17
5437.99733 3.02375e-17
5440.00173 3.03796e-17
5441.99611 3.03777e-17
5444.00051 3.03108e-17
5445.99489 3.01745e-17
5447.99929 2.99229e-17
5450.00369 2.96398e-17
5451.99807 2.94753e-17
5454.00247 2.93722e-17
5455.99684 2.93099e-17
5458.00124 2.93300e-17
5459.99562 2.93260e-17
5462.00002 2.92926e-17
5464.00442 2.92638e-17
5465.99880 2.92671e-17
5468.00320 2.92934e-17
5469.99758 2.92984e-17
5472.00198 2.93401e-17
5473.99636 2.92803e-17
5476.00076 2.91311e-17
5477.99513 2.89306e-17
5479.99953 2.86633e-17
5482.00393 2.83479e-17
5483.99831 2.81885e-17
5486.00271 2.81638e-17
5487.99709 2.81013e-17
5490.00149 2.80383e-17
5491.99587 2.80051e-17
5494.00027 2.80140e-17
5496.00467 2.80502e-17
5497.99905 2.80927e-17
5500.00345 2.81804e-17
5501.99782 2.81800e-17
5504.00222 2.81263e-17
5505.99660 2.80371e-17
5508.00100 2.78782e-17
5509.99538 2.77172e-17
5511.99978 2.76443e-17
5514.00418 2.76176e-17
5515.99856 2.76591e-17
5518.00296 2.78503e-17
5519.99734 2.79160e-17
5522.00174 2.78628e-17
5523.99611 2.77702e-17
5526.00051 2.76787e-17
5528.00491 2.75673e-17
5529.99929 2.74681e-17
5532.00369 2.73591e-17
5533.99807 2.72762e-17
5536.00247 2.72444e-17
5537.99685 2.71756e-17
5540.00125 2.70282e-17
5541.99563 2.68354e-17
5544.00003 2.66481e-17
5546.00443 2.64136e-17
5547.99880 2.62551e-17
5550.00320 2.61146e-17
5551.99758 2.60514e-17
5554.00198 2.61269e-17
5555.99636 2.62341e-17
5558.00076 2.61821e-17
5559.99514 2.60174e-17
5561.99954 2.59013e-17
5564.00394 2.57282e-17
5565.99832 2.56634e-17
5568.00272 2.57665e-17
5569.99709 2.58747e-17
5572.00149 2.58206e-17
5573.99587 2.56618e-17
5576.00027 2.56186e-17
5578.00467 2.56612e-17
5579.99905 2.56513e-17
5582.00345 2.56003e-17
5583.99783 2.55453e-17
5586.00223 2.55013e-17
5587.99661 2.54602e-17
5590.00101 2.54280e-17
5591.99538 2.54349e-17
5593.99978 2.53730e-17
5596.00418 2.52336e-17
5597.99856 2.51209e-17
5600.00296 2.50707e-17
5601.99734 2.50459e-17
5604.00174 2.50012e-17
5605.99612 2.49738e-17
5608.00052 2.48805e-17
5610.00492 2.47335e-17
5611.99930 2.45712e-17
5614.00370 2.43744e-17
5615.99807 2.41797e-17
5618.00247 2.40494e-17
5619.99685 2.39684e-17
5622.00125 2.38572e-17
5623.99563 2.37217e-17
5626.00003 2.36230e-17
5628.00443 2.35796e-17
5629.99881 2.35284e-17
5632.00321 2.34180e-17
5633.99759 2.32719e-17
5636.00199 2.31550e-17
5637.99636 2.30223e-17
5640.00076 2.29483e-17
5641.99514 2.29618e-17
5643.99954 2.29426e-17
5646.00394 2.28359e-17
5647.99832 2.26828e-17
5650.00272 2.25378e-17
5651.99710 2.23416e-17
5654.00150 2.22352e-17
5655.99588 2.22222e-17
5658.00028 2.21744e-17
5660.00468 2.20668e-17
5661.99905 2.19334e-17
5664.00345 2.18021e-17
5665.99783 2.16586e-17
5668.00223 2.15183e-17
5669.99661 2.13484e-17
5672.00101 2.12327e-17
5673.99539 2.12033e-17
5675.99979 2.11764e-17
5678.00419 2.10582e-17
5679.99857 2.08749e-17
5682.00297 2.08009e-17
5683.99734 2.08297e-17
5686.00174 2.07989e-17
5687.99612 2.07098e-17
5690.00052 2.06335e-17
5691.99490 2.06105e-17
5693.99930 2.06177e-17
5696.00370 2.06201e-17
5697.99808 2.06299e-17
5700.00248 2.06475e-17
5701.99686 2.06796e-17
5704.00126 2.07074e-17
5705.99563 2.07386e-17
5708.00003 2.07581e-17
5710.00443 2.07052e-17
5711.99881 2.05500e-17
5714.00321 2.05118e-17
5715.99759 2.05470e-17
5718.00199 2.05884e-17
5719.99637 2.06466e-17
5722.00077 2.07027e-17
5723.99515 2.07087e-17
5725.99955 2.06642e-17
5728.00395 2.07051e-17
5729.99832 2.08317e-17
5732.00272 2.09086e-17
5733.99710 2.09681e-17
5736.00150 2.09767e-17
5737.99588 2.08729e-17
5740.00028 2.06772e-17
5742.00468 2.06347e-17
5743.99906 2.07070e-17
5746.00346 2.07479e-17
5747.99784 2.07964e-17
5750.00224 2.08374e-17
5751.99661 2.08550e-17
5754.00101 2.08633e-17
5755.99539 2.09067e-17
5757.99979 2.10007e-17
5760.00419 2.10335e-17
5761.99857 2.10101e-17
5764.00297 2.10094e-17
5765.99735 2.10546e-17
5768.00175 2.11132e-17
5769.99613 2.11430e-17
5772.00053 2.11604e-17
5774.00493 2.11680e-17
5775.99930 2.11839e-17
5778.00370 2.11513e-17
5779.99808 2.10221e-17
5782.00248 2.09084e-17
5783.99686 2.09351e-17
5786.00126 2.10575e-17
5787.99564 2.11623e-17
5790.00004 2.13054e-17
5792.00444 2.14277e-17
5793.99882 2.15648e-17
5796.00322 2.16557e-17
5797.99759 2.16461e-17
5800.00199 2.15677e-17
5801.99637 2.15437e-17
5804.00077 2.15561e-17
5805.99515 2.15203e-17
5807.99955 2.14073e-17
5810.00395 2.13554e-17
5811.99833 2.14242e-17
5814.00273 2.15528e-17
5815.99711 2.16425e-17
5818.00151 2.17670e-17
5819.99588 2.17800e-17
5822.00028 2.16593e-17
5824.00468 2.15972e-17
5825.99906 2.16207e-17
5828.00346 2.16748e-17
5829.99784 2.17183e-17
5832.00224 2.17812e-17
5833.99662 2.17831e-17
5836.00102 2.17428e-17
5837.99540 2.16818e-17
5839.99980 2.15702e-17
5842.00420 2.14708e-17
5843.99857 2.14380e-17
5846.00297 2.14466e-17
5847.99735 2.14771e-17
5850.00175 2.15996e-17
5851.99613 2.16078e-17
5854.00053 2.14915e-17
5856.00493 2.13939e-17
5857.99931 2.13848e-17
5860.00371 2.14152e-17
5861.99809 2.14104e-17
5864.00249 2.13824e-17
5865.99686 2.13838e-17
5868.00126 2.14034e-17
5869.99564 2.14293e-17
5872.00004 2.14771e-17
5874.00444 2.15192e-17
5875.99882 2.14944e-17
5878.00322 2.14457e-17
5879.99760 2.12831e-17
5882.00200 2.09852e-17
5883.99638 2.06992e-17
5886.00078 2.03906e-17
5887.99515 2.01122e-17
5889.99955 1.99373e-17
5892.00395 1.98298e-17
5893.99833 1.98207e-17
5896.00273 1.99259e-17
5897.99711 2.00632e-17
5900.00151 2.03027e-17
5901.99589 2.05088e-17
5904.00029 2.05864e-17
5906.00469 2.05869e-17
5907.99907 2.05885e-17
5910.00347 2.05375e-17
5911.99784 2.05214e-17
5914.00224 2.05234e-17
5915.99662 2.05275e-17
5918.00102 2.05188e-17
5919.99540 2.05155e-17
5921.99980 2.05712e-17
5924.00420 2.07207e-17
5925.99858 2.07470e-17
5928.00298 2.06805e-17
5929.99736 2.06228e-17
5932.00176 2.05899e-17
5933.99613 2.05514e-17
5936.00053 2.04767e-17
5937.99491 2.03654e-17
5939.99931 2.02973e-17
5942.00371 2.02541e-17
5943.99809 2.02142e-17
5946.00249 2.01710e-17
5947.99687 2.01452e-17
5950.00127 2.01661e-17
5951.99565 2.02265e-17
5954.00005 2.02020e-17
5956.00445 2.00787e-17
5957.99882 2.00367e-17
5960.00322 2.00746e-17
5961.99760 2.00970e-17
5964.00200 2.00482e-17
5965.99638 1.99689e-17
5968.00078 1.99567e-17
5970.00518 1.99776e-17
5971.99956 2.00278e-17
5974.00396 2.01451e-17
5975.99834 2.02277e-17
5978.00274 2.02496e-17
5979.99711 2.02418e-17
5982.00151 2.02354e-17
5983.99589 2.02156e-17
5986.00029 2.01943e-17
5988.00469 2.01769e-17
5989.99907 2.01363e-17
5992.00347 2.00580e-17
5993.99785 1.99755e-17
5996.00225 1.99206e-17
5997.99663 1.98718e-17
6000.00103 1.98922e-17
6001.99540 2.00406e-17
6003.99980 2.00674e-17
6006.00420 1.99670e-17
6007.99858 1.98525e-17
6010.00298 1.97877e-17
6011.99736 1.97391e-17
6014.00176 1.96975e-17
6015.99614 1.96765e-17
6018.00054 1.96414e-17
6020.00494 1.96075e-17
6021.99932 1.95577e-17
6024.00372 1.94801e-17
6025.99809 1.93877e-17
6028.00249 1.93114e-17
6029.99687 1.92067e-17
6032.00127 1.92003e-17
6033.99565 1.93243e-17
6036.00005 1.93777e-17
6038.00445 1.93305e-17
6039.99883 1.92353e-17
6042.00323 1.91279e-17
6043.99761 1.89770e-17
6046.00201 1.88787e-17
6047.99638 1.88114e-17
6050.00078 1.87481e-17
6051.99516 1.86973e-17
6053.99956 1.86468e-17
6056.00396 1.85796e-17
6057.99834 1.85012e-17
6060.00274 1.84519e-17
6061.99712 1.83898e-17
6064.00152 1.84064e-17
6065.99590 1.85449e-17
6068.00030 1.86480e-17
6070.00470 1.86299e-17
6071.99907 1.85471e-17
6074.00347 1.84887e-17
6075.99785 1.84011e-17
6078.00225 1.83579e-17
6079.99663 1.83604e-17
6082.00103 1.83461e-17
6083.99541 1.82860e-17
6085.99981 1.82192e-17
6088.00421 1.82179e-17
6089.99859 1.82856e-17
6092.00299 1.82782e-17
6093.99736 1.82099e-17
6096.00176 1.81697e-17
6097.99614 1.81570e-17
6100.00054 1.81644e-17
6101.99492 1.81996e-17
6103.99932 1.82671e-17
6106.00372 1.83043e-17
6107.99810 1.83099e-17
6110.00250 1.83517e-17
6111.99688 1.84648e-17
6114.00128 1.85395e-17
6115.99565 1.84828e-17
6118.00005 1.83417e-17
6120.00445 1.82977e-17
6121.99883 1.82896e-17
6124.00323 1.83121e-17
6125.99761 1.84001e-17
6128.00201 1.84652e-17
6129.99639 1.84741e-17
6132.00079 1.84529e-17
6133.99517 1.84264e-17
6135.99957 1.83760e-17
6138.00397 1.83369e-17
6139.99834 1.83040e-17
6142.00274 1.82613e-17
6143.99712 1.81995e-17
6146.00152 1.81354e-17
6147.99590 1.80972e-17
6150.00030 1.80845e-17
6152.00470 1.80354e-17
6153.99908 1.79625e-17
6156.00348 1.78867e-17
6157.99786 1.77952e-17
6160.00226 1.77119e-17
6161.99663 1.76652e-17
6164.00103 1.76454e-17
6165.99541 1.76038e-17
6167.99981 1.75267e-17
6170.00421 1.75100e-17
6171.99859 1.75699e-17
6174.00299 1.76168e-17
6175.99737 1.76031e-17
6178.00177 1.75586e-17
6179.99615 1.75214e-17
6182.00055 1.74366e-17
6183.99492 1.74437e-17
6185.99932 1.75406e-17
6188.00372 1.76235e-17
6189.99810 1.76601e-17
6192.00250 1.76868e-17
6193.99688 1.77497e-17
6196.00128 1.78521e-17
6197.99566 1.79004e-17
6200.00006 1.79155e-17
6202.00446 1.79207e-17
6203.99884 1.79078e-17
6206.00324 1.78922e-17
6207.99761 1.78938e-17
6210.00201 1.78978e-17
6211.99639 1.79518e-17
6214.00079 1.80755e-17
6215.99517 1.81590e-17
6217.99957 1.82011e-17
6220.00397 1.82447e-17
6221.99835 1.83234e-17
6224.00275 1.84211e-17
6225.99713 1.84687e-17
6228.00153 1.84843e-17
6229.99590 1.84865e-17
6232.00030 1.84255e-17
6234.00470 1.84203e-17
6235.99908 1.85434e-17
6238.00348 1.87263e-17
6239.99786 1.88047e-17
6242.00226 1.88190e-17
6243.99664 1.88450e-17
6246.00104 1.88370e-17
6247.99542 1.88605e-17
6249.99982 1.89435e-17
6252.00422 1.90384e-17
6253.99859 1.90703e-17
6256.00299 1.90436e-17
6257.99737 1.90990e-17
6260.00177 1.92266e-17
6261.99615 1.93224e-17
6264.00055 1.93829e-17
6266.00495 1.94376e-17
6267.99933 1.95139e-17
6270.00373 1.96054e-17
6271.99811 1.96319e-17
6274.00251 1.95981e-17
6275.99688 1.95747e-17
6278.00128 1.95172e-17
6279.99566 1.95021e-17
6282.00006 1.95895e-17
6284.00446 1.97393e-17
6285.99884 1.98264e-17
6288.00324 1.98842e-17
6289.99762 1.99508e-17
6292.00202 2.00231e-17
6293.99640 2.00802e-17
6296.00080 2.01165e-17
6297.99517 2.01370e-17
6299.99957 2.01430e-17
6302.00397 2.01166e-17
6303.99835 2.01325e-17
6306.00275 2.01683e-17
6307.99713 2.02224e-17
6310.00153 2.03094e-17
6311.99591 2.03999e-17
6314.00031 2.04541e-17
6316.00471 2.04892e-17
6317.99909 2.05056e-17
6320.00349 2.04789e-17
6321.99786 2.04844e-17
6324.00226 2.05139e-17
6325.99664 2.05604e-17
6328.00104 2.06321e-17
6329.99542 2.07269e-17
6331.99982 2.07622e-17
6334.00422 2.07338e-17
6335.99860 2.07487e-17
6338.00300 2.08061e-17
6339.99738 2.08421e-17
6342.00178 2.08198e-17
6343.99615 2.07719e-17
6346.00055 2.07750e-17
6347.99493 2.08118e-17
6349.99933 2.08423e-17
6352.00373 2.08915e-17
6353.99811 2.09220e-17
6356.00251 2.09203e-17
6357.99689 2.09078e-17
6360.00129 2.09180e-17
6361.99567 2.09582e-17
6364.00007 2.09196e-17
6366.00447 2.07588e-17
6367.99884 2.07093e-17
6370.00324 2.08169e-17
6371.99762 2.09364e-17
6374.00202 2.09364e-17
6375.99640 2.08697e-17
6378.00080 2.08193e-17
6379.99518 2.07347e-17
6381.99958 2.06891e-17
6384.00398 2.06844e-17
6385.99836 2.06811e-17
6388.00276 2.06558e-17
6389.99713 2.06225e-17
6392.00153 2.06120e-17
6393.99591 2.06421e-17
6396.00031 2.06168e-17
6398.00471 2.05485e-17
6399.99909 2.04756e-17
6402.00349 2.03954e-17
6403.99787 2.03184e-17
6406.00227 2.02979e-17
6407.99665 2.03384e-17
6410.00105 2.03351e-17
6411.99542 2.02992e-17
6413.99982 2.02922e-17
6416.00422 2.03220e-17
6417.99860 2.03706e-17
6420.00300 2.04314e-17
6421.99738 2.05242e-17
6424.00178 2.05317e-17
6425.99616 2.04583e-17
6428.00056 2.04075e-17
6429.99494 2.03688e-17
6431.99934 2.03334e-17
6434.00374 2.02990e-17
6435.99811 2.02665e-17
6438.00251 2.02443e-17
6439.99689 2.02338e-17
6442.00129 2.02207e-17
6443.99567 2.02299e-17
6446.00007 2.02056e-17
6448.00447 2.01027e-17
6449.99885 1.99631e-17
6452.00325 1.99141e-17
6453.99763 1.99271e-17
6456.00203 1.99377e-17
6457.99640 2.00011e-17
6460.00080 2.00157e-17
6461.99518 1.99432e-17
6463.99958 1.98426e-17
6466.00398 1.98012e-17
6467.99836 1.97963e-17
6470.00276 1.97651e-17
6471.99714 1.97275e-17
6474.00154 1.96828e-17
6475.99592 1.96128e-17
6478.00032 1.95569e-17
6480.00472 1.95612e-17
6481.99909 1.96100e-17
6484.00349 1.96471e-17
6485.99787 1.96993e-17
6488.00227 1.97406e-17
6489.99665 1.97673e-17
6492.00105 1.98003e-17
6493.99543 1.98536e-17
6495.99983 1.99187e-17
6498.00423 1.99733e-17
6499.99861 2.00605e-17
6502.00301 2.00626e-17
6503.99738 1.99518e-17
6506.00178 1.98887e-17
6507.99616 1.99541e-17
6510.00056 2.00558e-17
6512.00496 2.00081e-17
6513.99934 1.97986e-17
6516.00374 1.97690e-17
6517.99812 1.98633e-17
6520.00252 1.99419e-17
6521.99690 2.00062e-17
6524.00130 2.00578e-17
6525.99567 2.00690e-17
6528.00007 2.00399e-17
6530.00447 2.00484e-17
6531.99885 2.01011e-17
6534.00325 2.01007e-17
6535.99763 2.00351e-17
6538.00203 1.99619e-17
6539.99641 1.99246e-17
6542.00081 1.99031e-17
6543.99519 1.98672e-17
6545.99959 1.98311e-17
6548.00399 1.97818e-17
6549.99836 1.96924e-17
6552.00276 1.96398e-17
6553.99714 1.96729e-17
6556.00154 1.97516e-17
6557.99592 1.97751e-17
6560.00032 1.98052e-17
6562.00472 1.97544e-17
6563.99910 1.95980e-17
6566.00350 1.94774e-17
6567.99788 1.94173e-17
6570.00228 1.93884e-17
6571.99665 1.93812e-17
6574.00105 1.94213e-17
6575.99543 1.94017e-17
6577.99983 1.93476e-17
6580.00423 1.92832e-17
6581.99861 1.91899e-17
6584.00301 1.91036e-17
6585.99739 1.90727e-17
6588.00179 1.90838e-17
6589.99617 1.90562e-17
6592.00057 1.90022e-17
6593.99494 1.89667e-17
6595.99934 1.89474e-17
6598.00374 1.89303e-17
6599.99812 1.89084e-17
6602.00252 1.88854e-17
6603.99690 1.88604e-17
6606.00130 1.88385e-17
6607.99568 1.88036e-17
6610.00008 1.87596e-17
6612.00448 1.87076e-17
6613.99886 1.86412e-17
6616.00326 1.85699e-17
6617.99763 1.85250e-17
6620.00203 1.85037e-17
6621.99641 1.84695e-17
6624.00081 1.84389e-17
6625.99519 1.83968e-17
6627.99959 1.83279e-17
6630.00399 1.82620e-17
6631.99837 1.82416e-17
6634.00277 1.82508e-17
6635.99715 1.82772e-17
6638.00155 1.83721e-17
6639.99592 1.83907e-17
6642.00032 1.83120e-17
6644.00472 1.82253e-17
6645.99910 1.81998e-17
6648.00350 1.82041e-17
6649.99788 1.81893e-17
6652.00228 1.81936e-17
6653.99666 1.81470e-17
6656.00106 1.80375e-17
6657.99544 1.79354e-17
6659.99984 1.78664e-17
6662.00424 1.78161e-17
6663.99861 1.77997e-17
6666.00301 1.78402e-17
6667.99739 1.78392e-17
6670.00179 1.78249e-17
6671.99617 1.77999e-17
6674.00057 1.77650e-17
6676.00497 1.77192e-17
6677.99935 1.76598e-17
6680.00375 1.75785e-17
6681.99813 1.75206e-17
6684.00253 1.74642e-17
6685.99690 1.74328e-17
6688.00130 1.74462e-17
6689.99568 1.74591e-17
6692.00008 1.74164e-17
6694.00448 1.73338e-17
6695.99886 1.72904e-17
6698.00326 1.72727e-17
6699.99764 1.72407e-17
6702.00204 1.72018e-17
6703.99642 1.71546e-17
6706.00082 1.70914e-17
6707.99519 1.70169e-17
6709.99959 1.69725e-17
6712.00399 1.69544e-17
6713.99837 1.69275e-17
6716.00277 1.68881e-17
6717.99715 1.68702e-17
6720.00155 1.68894e-17
6721.99593 1.69301e-17
6724.00033 1.69672e-17
6726.00473 1.70371e-17
6727.99911 1.70334e-17
6730.00351 1.69651e-17
6731.99788 1.68989e-17
6734.00228 1.68340e-17
6735.99666 1.67719e-17
6738.00106 1.67290e-17
6739.99544 1.66994e-17
6741.99984 1.66770e-17
6744.00424 1.66770e-17
6745.99862 1.66589e-17
6748.00302 1.66297e-17
6749.99740 1.65847e-17
6752.00180 1.65103e-17
6753.99617 1.64092e-17
6756.00057 1.63508e-17
6758.00497 1.63303e-17
6759.99935 1.62879e-17
6762.00375 1.62261e-17
6763.99813 1.61711e-17
6766.00253 1.61408e-17
6767.99691 1.61214e-17
6770.00131 1.60700e-17
6771.99569 1.59794e-17
6774.00009 1.59265e-17
6776.00449 1.59021e-17
6777.99886 1.58690e-17
6780.00326 1.58182e-17
6781.99764 1.57602e-17
6784.00204 1.57036e-17
6785.99642 1.56356e-17
6788.00082 1.55998e-17
6789.99520 1.56038e-17
6791.99960 1.55851e-17
6794.00400 1.55339e-17
6795.99838 1.54779e-17
6798.00278 1.54421e-17
6799.99715 1.54158e-17
6802.00155 1.53957e-17
6803.99593 1.53913e-17
6806.00033 1.53761e-17
6808.00473 1.53389e-17
6809.99911 1.53170e-17
6812.00351 1.53465e-17
6813.99789 1.54083e-17
6816.00229 1.54014e-17
6817.99667 1.53460e-17
6820.00107 1.52918e-17
6821.99544 1.52165e-17
6823.99984 1.51456e-17
6826.00424 1.50828e-17
6827.99862 1.50281e-17
6830.00302 1.50020e-17
6831.99740 1.50045e-17
6834.00180 1.50059e-17
6835.99618 1.50297e-17
6838.00058 1.50340e-17
6839.99496 1.50104e-17
6841.99936 1.49741e-17
6844.00376 1.49379e-17
6845.99813 1.49348e-17
6848.00253 1.49317e-17
6849.99691 1.49285e-17
6852.00131 1.49254e-17
6853.99569 1.49223e-17
6856.00009 1.49192e-17
6858.00449 1.49161e-17
6859.99887 1.49130e-17
6862.00327 1.49099e-17
6863.99765 1.49068e-17
6866.00205 1.49037e-17
6867.99642 1.49006e-17
6870.00082 1.48974e-17
6871.99520 1.48943e-17
6873.99960 1.48912e-17
6876.00400 1.48881e-17
6877.99838 1.48850e-17
6880.00278 1.48819e-17
6881.99716 1.48788e-17
6884.00156 1.48757e-17
6885.99594 1.48726e-17
6888.00034 1.48695e-17
6890.00474 1.48664e-17
6891.99911 1.48633e-17
6894.00351 1.48601e-17
6895.99789 1.48570e-17
6898.00229 1.48539e-17
6899.99667 1.48508e-17
6902.00107 1.48477e-17
6903.99545 1.48446e-17
6905.99985 1.48415e-17
6908.00425 1.48384e-17
6909.99863 1.48353e-17
6912.00303 1.48322e-17
6913.99740 1.48291e-17
6916.00180 1.48260e-17
6917.99618 1.48229e-17
6920.00058 1.48198e-17
6922.00498 1.48167e-17
6923.99936 1.48136e-17
6926.00376 1.48105e-17
6927.99814 1.48073e-17
6930.00254 1.48042e-17
6931.99692 1.48011e-17
6934.00132 1.47980e-17
6935.99569 1.47949e-17
6938.00009 1.47923e-17
6940.00449 1.47911e-17
6941.99887 1.48039e-17
6944.00327 1.48113e-17
6945.99765 1.48123e-17
6948.00205 1.48080e-17
6949.99643 1.47926e-17
6952.00083 1.47565e-17
6953.99521 1.47672e-17
6955.99961 1.48387e-17
6958.00401 1.48638e-17
6959.99838 1.48410e-17
6962.00278 1.47980e-17
6963.99716 1.47461e-17
6966.00156 1.46756e-17
6967.99594 1.46493e-17
6970.00034 1.46801e-17
6972.00474 1.46593e-17
6973.99912 1.45901e-17
6976.00352 1.45200e-17
6977.99790 1.44670e-17
6980.00230 1.44218e-17
6981.99667 1.44034e-17
6984.00107 1.44245e-17
6985.99545 1.44195e-17
6987.99985 1.43999e-17
6990.00425 1.43853e-17
6991.99863 1.43842e-17
6994.00303 1.43860e-17
6995.99741 1.43736e-17
6998.00181 1.43527e-17
6999.99619 1.43279e-17
7002.00059 1.42762e-17
7003.99496 1.42607e-17
7005.99936 1.43122e-17
7008.00376 1.43626e-17
7009.99814 1.43232e-17
7012.00254 1.42122e-17
7013.99692 1.41824e-17
7016.00132 1.41851e-17
7017.99570 1.42180e-17
7020.00010 1.43202e-17
7022.00450 1.43998e-17
7023.99888 1.43813e-17
7026.00328 1.43016e-17
7027.99765 1.42572e-17
7030.00205 1.42174e-17
7031.99643 1.41735e-17
7034.00083 1.41144e-17
7035.99521 1.40744e-17
7037.99961 1.40732e-17
7040.00401 1.40925e-17
7041.99839 1.40929e-17
7044.00279 1.41148e-17
7045.99717 1.40625e-17
7048.00157 1.39259e-17
7049.99594 1.38147e-17
7052.00034 1.37437e-17
7054.00474 1.36915e-17
7055.99912 1.36489e-17
7058.00352 1.36191e-17
7059.99790 1.36044e-17
7062.00230 1.36352e-17
7063.99668 1.36171e-17
7066.00108 1.35243e-17
7067.99546 1.34333e-17
7069.99986 1.34142e-17
7072.00426 1.34390e-17
7073.99863 1.34531e-17
7076.00303 1.35181e-17
7077.99741 1.34954e-17
7080.00181 1.33632e-17
7081.99619 1.32440e-17
7084.00059 1.32072e-17
7085.99497 1.32105e-17
7087.99937 1.31906e-17
7090.00377 1.31590e-17
7091.99815 1.31532e-17
7094.00255 1.31742e-17
7095.99692 1.31908e-17
7098.00132 1.31919e-17
7099.99570 1.31900e-17
7102.00010 1.32040e-17
7104.00450 1.32379e-17
7105.99888 1.32437e-17
7108.00328 1.32163e-17
7109.99766 1.32139e-17
7112.00206 1.32471e-17
7113.99644 1.32907e-17
7116.00084 1.33231e-17
7117.99521 1.33597e-17
7119.99961 1.33564e-17
7122.00401 1.32981e-17
7123.99839 1.32760e-17
7126.00279 1.33044e-17
7127.99717 1.33185e-17
7130.00157 1.32594e-17
7131.99595 1.31532e-17
7134.00035 1.31366e-17
7136.00475 1.32006e-17
7137.99913 1.32210e-17
7140.00353 1.32230e-17
7141.99790 1.32179e-17
7144.00230 1.32114e-17
7145.99668 1.31983e-17
7148.00108 1.31638e-17
7149.99546 1.30939e-17
7151.99986 1.30595e-17
7154.00426 1.30302e-17
7155.99864 1.30323e-17
7158.00304 1.30916e-17
7159.99742 1.31636e-17
7162.00182 1.31717e-17
7163.99619 1.31475e-17
7166.00059 1.30867e-17
7168.00499 1.29491e-17
7169.99937 1.28596e-17
7172.00377 1.28171e-17
7173.99815 1.28002e-17
7176.00255 1.28016e-17
7177.99693 1.28271e-17
7180.00133 1.28466e-17
7181.99571 1.29038e-17
7184.00011 1.28917e-17
7186.00451 1.27866e-17
7187.99888 1.26973e-17
7190.00328 1.26879e-17
7191.99766 1.27204e-17
7194.00206 1.27353e-17
7195.99644 1.27683e-17
7198.00084 1.27698e-17
7199.99522 1.27639e-17
7201.99962 1.27221e-17
7204.00402 1.26136e-17
7205.99840 1.24802e-17
7208.00280 1.24245e-17
7209.99717 1.24281e-17
7212.00157 1.24023e-17
7213.99595 1.23832e-17
7216.00035 1.23441e-17
7218.00475 1.22731e-17
7219.99913 1.21951e-17
7222.00353 1.21432e-17
7223.99791 1.21105e-17
7226.00231 1.20477e-17
7227.99669 1.19444e-17
7230.00109 1.18826e-17
7231.99546 1.18627e-17
7233.99986 1.18577e-17
7236.00426 1.18576e-17
7237.99864 1.18689e-17
7240.00304 1.18398e-17
7241.99742 1.17747e-17
7244.00182 1.17166e-17
7245.99620 1.16449e-17
7248.00060 1.15871e-17
7249.99498 1.15556e-17
7251.99938 1.15416e-17
7254.00378 1.15393e-17
7255.99815 1.15734e-17
7258.00255 1.15632e-17
7259.99693 1.15278e-17
7262.00133 1.14812e-17
7263.99571 1.14246e-17
7266.00011 1.13573e-17
7268.00451 1.12790e-17
7269.99889 1.11738e-17
7272.00329 1.11231e-17
7273.99767 1.11161e-17
7276.00207 1.11087e-17
7277.99644 1.11039e-17
7280.00084 1.11026e-17
7281.99522 1.11068e-17
7283.99962 1.11218e-17
7286.00402 1.10832e-17
7287.99840 1.09734e-17
7290.00280 1.09159e-17
7291.99718 1.09053e-17
7294.00158 1.08989e-17
7295.99596 1.08777e-17
7298.00036 1.08520e-17
7300.00476 1.08122e-17
7301.99913 1.07518e-17
7304.00353 1.07039e-17
7305.99791 1.06485e-17
7308.00231 1.06155e-17
7309.99669 1.06359e-17
7312.00109 1.06690e-17
7313.99547 1.06088e-17
7315.99987 1.04507e-17
7318.00427 1.03795e-17
7319.99865 1.03661e-17
7322.00305 1.03322e-17
7323.99742 1.02706e-17
7326.00182 1.01978e-17
7327.99620 1.01207e-17
7330.00060 1.00285e-17
7331.99498 9.97236e-18
7333.99938 9.94254e-18
7336.00378 9.91843e-18
7337.99816 9.90868e-18
7340.00256 9.89960e-18
7341.99694 9.88267e-18
7344.00134 9.86319e-18
7345.99571 9.81243e-18
7348.00011 9.72793e-18
7350.00451 9.64929e-18
7351.99889 9.56696e-18
7354.00329 9.48248e-18
7355.99767 9.39150e-18
7358.00207 9.29970e-18
7359.99645 9.23828e-18
7362.00085 9.20696e-18
7363.99523 9.16691e-18
7365.99963 9.13775e-18
7368.00403 9.09646e-18
7369.99840 9.03680e-18
7372.00280 8.96716e-18
7373.99718 8.89555e-18
7376.00158 8.80911e-18
7377.99596 8.75540e-18
7380.00036 8.75365e-18
7382.00476 8.70210e-18
7383.99914 8.57975e-18
7386.00354 8.44719e-18
7387.99792 8.36179e-18
7390.00232 8.30080e-18
7391.99669 8.23479e-18
7394.00109 8.16592e-18
7395.99547 8.11812e-18
7397.99987 8.10409e-18
7400.00427 8.08240e-18
7401.99865 8.02625e-18
7404.00305 7.95053e-18
7405.99743 7.87940e-18
7408.00183 7.78802e-18
7409.99621 7.73083e-18
7412.00061 7.71308e-18
7414.00501 7.68204e-18
7415.99938 7.61752e-18
7418.00378 7.53895e-18
7419.99816 7.47337e-18
7422.00256 7.40615e-18
7423.99694 7.35487e-18
7426.00134 7.31746e-18
7427.99572 7.28446e-18
7430.00012 7.27105e-18
7432.00452 7.24787e-18
7433.99890 7.15991e-18
7436.00330 7.00734e-18
7437.99767 6.93395e-18
7440.00207 6.90966e-18
7441.99645 6.88572e-18
7444.00085 6.87991e-18
7445.99523 6.86535e-18
7447.99963 6.81280e-18
7450.00403 6.73444e-18
7451.99841 6.67008e-18
7454.00281 6.60492e-18
7455.99719 6.54317e-18
7458.00159 6.47559e-18
7459.99596 6.42345e-18
7462.00036 6.40156e-18
7464.00476 6.39810e-18
7465.99914 6.37997e-18
7468.00354 6.36118e-18
7469.99792 6.33480e-18
7472.00232 6.30209e-18
7473.99670 6.26524e-18
7476.00110 6.21524e-18
7477.99548 6.16766e-18
7479.99988 6.16209e-18
7482.00428 6.21060e-18
7483.99865 6.18072e-18
7486.00305 6.09453e-18
7487.99743 6.00885e-18
7490.00183 5.90825e-18
7491.99621 5.81773e-18
7494.00061 5.77580e-18
7495.99499 5.77022e-18
7497.99939 5.75688e-18
7500.00379 5.78050e-18
7501.99817 5.74580e-18
7504.00257 5.63551e-18
7505.99694 5.53110e-18
7508.00134 5.47918e-18
7509.99572 5.45503e-18
7512.00012 5.45702e-18
7514.00452 5.52647e-18
7515.99890 5.52830e-18
7518.00330 5.47507e-18
7519.99768 5.42668e-18
7522.00208 5.39982e-18
7523.99646 5.38228e-18
7526.00086 5.37434e-18
7527.99523 5.38315e-18
7529.99963 5.38018e-18
7532.00403 5.36773e-18
7533.99841 5.36402e-18
7536.00281 5.38043e-18
7537.99719 5.39532e-18
7540.00159 5.37490e-18
7541.99597 5.32321e-18
7544.00037 5.30057e-18
7546.00477 5.28448e-18
7547.99915 5.28502e-18
7550.00355 5.30980e-18
7551.99792 5.32122e-18
7554.00232 5.33263e-18
7555.99670 5.34405e-18
7558.00110 5.35546e-18
7559.99548 5.36687e-18
7561.99988 5.37828e-18
7564.00428 5.38968e-18
7565.99866 5.40109e-18
7568.00306 5.41249e-18
7569.99744 5.42390e-18
7572.00184 5.43530e-18
7573.99621 5.44670e-18
7576.00061 5.45809e-18
7577.99499 5.46949e-18
7579.99939 5.48088e-18
7582.00379 5.49228e-18
7583.99817 5.50367e-18
7586.00257 5.51506e-18
7587.99695 5.52645e-18
7590.00135 5.53784e-18
7591.99573 5.54922e-18
7594.00013 5.56061e-18
7596.00453 5.57199e-18
7597.99890 5.58337e-18
7600.00330 5.59475e-18
7601.99768 5.60613e-18
7604.00208 5.61751e-18
7605.99646 5.62888e-18
7608.00086 5.64026e-18
7609.99524 5.65163e-18
7611.99964 5.66300e-18
7614.00404 5.67437e-18
7615.99842 5.68574e-18
7618.00282 5.69711e-18
7619.99719 5.70847e-18
7622.00159 5.71983e-18
7623.99597 5.73120e-18
7626.00037 5.74256e-18
7628.00477 5.75392e-18
7629.99915 5.76527e-18
7632.00355 5.77663e-18
7633.99793 5.78798e-18
7636.00233 5.79934e-18
7637.99671 5.81069e-18
7640.00111 5.82204e-18
7641.99548 5.83339e-18
7643.99988 5.84474e-18
7646.00428 5.85608e-18
7647.99866 5.86743e-18
7650.00306 5.87877e-18
7651.99744 5.89011e-18
7654.00184 5.90145e-18
7655.99622 5.91279e-18
7658.00062 5.92412e-18
7660.00502 5.93546e-18
7661.99940 5.94679e-18
7664.00380 5.95813e-18
7665.99817 5.96946e-18
7668.00257 5.98079e-18
7669.99695 5.99211e-18
7672.00135 6.00344e-18
7673.99573 6.01477e-18
7676.00013 6.02609e-18
7678.00453 6.03741e-18
7679.99891 6.04873e-18
7682.00331 6.10040e-18
7683.99769 6.17883e-18
7686.00209 6.24950e-18
7687.99646 6.30898e-18
7690.00086 6.35807e-18
7691.99524 6.38142e-18
7693.99964 6.36641e-18
7696.00404 6.39723e-18
7697.99842 6.46714e-18
7700.00282 6.51939e-18
7701.99720 6.55844e-18
7704.00160 6.58067e-18
7705.99598 6.56807e-18
7708.00038 6.51860e-18
7710.00478 6.51145e-18
7711.99915 6.52201e-18
7714.00355 6.54658e-18
7715.99793 6.59646e-18
7718.00233 6.64611e-18
7719.99671 6.67601e-18
7722.00111 6.69606e-18
7723.99549 6.72527e-18
7725.99989 6.76187e-18
7728.00429 6.79003e-18
7729.99867 6.81487e-18
7732.00307 6.83321e-18
7733.99744 6.83465e-18
7736.00184 6.83223e-18
7737.99622 6.87260e-18
7740.00062 6.96261e-18
7741.99500 7.01093e-18
7743.99940 7.03420e-18
7746.00380 7.06323e-18
7747.99818 7.10006e-18
7750.00258 7.14212e-18
7751.99696 7.19654e-18
7754.00136 7.27468e-18
7755.99573 7.29672e-18
7758.00013 7.25136e-18
7760.00453 7.24953e-18
7761.99891 7.29978e-18
7764.00331 7.35785e-18
7765.99769 7.39117e-18
7768.00209 7.41467e-18
7769.99647 7.43204e-18
7772.00087 7.43907e-18
7773.99525 7.44531e-18
7775.99965 7.44451e-18
7778.00405 7.44756e-18
7779.99842 7.45911e-18
7782.00282 7.47677e-18
7783.99720 7.50560e-18
7786.00160 7.55189e-18
7787.99598 7.58831e-18
7790.00038 7.62649e-18
7792.00478 7.65590e-18
7793.99916 7.66237e-18
7796.00356 7.66698e-18
7797.99794 7.72247e-18
7800.00234 7.84362e-18
7801.99671 7.87528e-18
7804.00111 7.82540e-18
7805.99549 7.81082e-18
7807.99989 7.83717e-18
7810.00429 7.88359e-18
7811.99867 7.94649e-18
7814.00307 8.03891e-18
7815.99745 8.07399e-18
7818.00185 8.05108e-18
7819.99623 8.05996e-18
7822.00063 8.11297e-18
7823.99500 8.14870e-18
7825.99940 8.11649e-18
7828.00380 8.04055e-18
7829.99818 8.01718e-18
7832.00258 8.02751e-18
7833.99696 8.02455e-18
7836.00136 8.02690e-18
7837.99574 8.01572e-18
7840.00014 7.97255e-18
7842.00454 7.91684e-18
7843.99892 7.90778e-18
7846.00332 7.92654e-18
7847.99769 7.96162e-18
7850.00209 8.03901e-18
7851.99647 8.09480e-18
7854.00087 8.12375e-18
7855.99525 8.13198e-18
7857.99965 8.10764e-18
7860.00405 8.03323e-18
7861.99843 8.02954e-18
7864.00283 8.08213e-18
7865.99721 8.11962e-18
7868.00161 8.15030e-18
7869.99598 8.17075e-18
7872.00038 8.17032e-18
7874.00478 8.15268e-18
7875.99916 8.13187e-18
7878.00356 8.09208e-18
7879.99794 8.06901e-18
7882.00234 8.05762e-18
7883.99672 8.05300e-18
7886.00112 8.05655e-18
7887.99550 8.06654e-18
7889.99990 8.06281e-18
7892.00430 8.03112e-18
7893.99867 8.04337e-18
7896.00307 8.10608e-18
7897.99745 8.14667e-18
7900.00185 8.12961e-18
7901.99623 8.09874e-18
7904.00063 8.13939e-18
7906.00503 8.25959e-18
7907.99941 8.28374e-18
7910.00381 8.23058e-18
7911.99819 8.20265e-18
7914.00259 8.21301e-18
7915.99696 8.22912e-18
7918.00136 8.22293e-18
7919.99574 8.20442e-18
7922.00014 8.18778e-18
7924.00454 8.14811e-18
7925.99892 8.14833e-18
7928.00332 8.21049e-18
7929.99770 8.26161e-18
7932.00210 8.24359e-18
7933.99648 8.18375e-18
7936.00088 8.15260e-18
7937.99525 8.10343e-18
7939.99965 8.10977e-18
7942.00405 8.19160e-18
7943.99843 8.25121e-18
7946.00283 8.24810e-18
7947.99721 8.21202e-18
7950.00161 8.17271e-18
7951.99599 8.09720e-18
7954.00039 8.06553e-18
7956.00479 8.06019e-18
7957.99917 8.06313e-18
7960.00357 8.08301e-18
7961.99794 8.10301e-18
7964.00234 8.08088e-18
7965.99672 8.01173e-18
7968.00112 8.00996e-18
7969.99550 8.07050e-18
7971.99990 8.10042e-18
7974.00430 8.10064e-18
7975.99868 8.08681e-18
7978.00308 8.06375e-18
7979.99746 8.02696e-18
7982.00186 8.00230e-18
7983.99623 7.98553e-18
7986.00063 7.96280e-18
7987.99501 7.93448e-18
7989.99941 7.90622e-18
7992.00381 7.88006e-18
7993.99819 7.85504e-18
7996.00259 7.83533e-18
7997.99697 7.81250e-18
8000.00137 7.80978e-18
8001.99575 7.82133e-18
8004.00015 7.84570e-18
8006.00455 7.89168e-18
8007.99892 7.94567e-18
8010.00332 7.96761e-18
8011.99770 7.96041e-18
8014.00210 7.97636e-18
8015.99648 8.01759e-18
8018.00088 8.03135e-18
8019.99526 7.99954e-18
8021.99966 7.96056e-18
8024.00406 7.96057e-18
8025.99844 7.98321e-18
8028.00284 8.00615e-18
8029.99721 8.04874e-18
8032.00161 8.07339e-18
8033.99599 8.07529e-18
8036.00039 8.07769e-18
8037.99477 8.10520e-18
8039.99917 8.14816e-18
8042.00357 8.12924e-18
8043.99795 8.05629e-18
8046.00235 7.98974e-18
8047.99673 7.90533e-18
8050.00113 7.82966e-18
8051.99550 7.77216e-18
8053.99990 7.72754e-18
8056.00430 7.70346e-18
8057.99868 7.71824e-18
8060.00308 7.69659e-18
8061.99746 7.64270e-18
8064.00186 7.60772e-18
8065.99624 7.59967e-18
8068.00064 7.60878e-18
8070.00504 7.63691e-18
8071.99942 7.70809e-18
8074.00382 7.69700e-18
8075.99819 7.60849e-18
8078.00259 7.54561e-18
8079.99697 7.50659e-18
8082.00137 7.47768e-18
8083.99575 7.45472e-18
8086.00015 7.43954e-18
8088.00455 7.43269e-18
8089.99893 7.43990e-18
8092.00333 7.44239e-18
8093.99771 7.45220e-18
8096.00211 7.44821e-18
8097.99648 7.41050e-18
8100.00088 7.35139e-18
8101.99526 7.32300e-18
8103.99966 7.30804e-18
8106.00406 7.30286e-18
8107.99844 7.32345e-18
8110.00284 7.32932e-18
8111.99722 7.30295e-18
8114.00162 7.26302e-18
8115.99600 7.23988e-18
8118.00040 7.20870e-18
8120.00480 7.22385e-18
8121.99917 7.28834e-18
8124.00357 7.34535e-18
8125.99795 7.39800e-18
8128.00235 7.44169e-18
8129.99673 7.45686e-18
8132.00113 7.44574e-18
8133.99551 7.44764e-18
8135.99991 7.44083e-18
8138.00431 7.45343e-18
8139.99869 7.49809e-18
8142.00309 7.53712e-18
8143.99746 7.53938e-18
8146.00186 7.51891e-18
8147.99624 7.50399e-18
8150.00064 7.47254e-18
8151.99502 7.46508e-18
8153.99942 7.48342e-18
8156.00382 7.49933e-18
8157.99820 7.49507e-18
8160.00260 7.48522e-18
8161.99698 7.50811e-18
8164.00138 7.54928e-18
8165.99575 7.61038e-18
8168.00015 7.71227e-18
8170.00455 7.79531e-18
8171.99893 7.85072e-18
8174.00333 7.88773e-18
8175.99771 7.90443e-18
8178.00211 7.89643e-18
8179.99649 7.88897e-18
8182.00089 7.86433e-18
8183.99527 7.85196e-18
8185.99967 7.85780e-18
8188.00407 7.86467e-18
8189.99844 7.85923e-18
8192.00284 7.85023e-18
8193.99722 7.81102e-18
8196.00162 7.72314e-18
8197.99600 7.67270e-18
8200.00040 7.65422e-18
8202.00480 7.64382e-18
8203.99918 7.63462e-18
8206.00358 7.62972e-18
8207.99796 7.59734e-18
8210.00236 7.52199e-18
8211.99673 7.49227e-18
8214.00113 7.49283e-18
8215.99551 7.50207e-18
8217.99991 7.51584e-18
8220.00431 7.53625e-18
8221.99869 7.55877e-18
8224.00309 7.60973e-18
8225.99747 7.59045e-18
8228.00187 7.46809e-18
8229.99625 7.42388e-18
8232.00065 7.49999e-18
8233.99502 7.61289e-18
8235.99942 7.66997e-18
8238.00382 7.70669e-18
8239.99820 7.74364e-18
8242.00260 7.78079e-18
8243.99698 7.79808e-18
8246.00138 7.78539e-18
8247.99576 7.77156e-18
8250.00016 7.77855e-18
8252.00456 7.79557e-18
8253.99894 7.82647e-18
8256.00334 7.87719e-18
8257.99771 7.92428e-18
8260.00211 7.98021e-18
8261.99649 8.02624e-18
8264.00089 8.04679e-18
8265.99527 8.05481e-18
8267.99967 8.09285e-18
8270.00407 8.15069e-18
8271.99845 8.21029e-18
8274.00285 8.28528e-18
8275.99723 8.35232e-18
8278.00163 8.40901e-18
8279.99600 8.45687e-18
8282.00040 8.49038e-18
8284.00480 8.50848e-18
8285.99918 8.52625e-18
8288.00358 8.52615e-18
8289.99796 8.54665e-18
8292.00236 8.58311e-18
8293.99674 8.64000e-18
8296.00114 8.73600e-18
8297.99552 8.87520e-18
8299.99992 8.94537e-18
8302.00432 8.95991e-18
8303.99869 8.99264e-18
8306.00309 9.03274e-18
8307.99747 9.07596e-18
8310.00187 9.11830e-18
8311.99625 9.16231e-18
8314.00065 9.23556e-18
8316.00505 9.36080e-18
8317.99943 9.43099e-18
8320.00383 9.44758e-18
8321.99821 9.48034e-18
8324.00261 9.56165e-18
8325.99698 9.65944e-18
8328.00138 9.71493e-18
8329.99576 9.73455e-18
8332.00016 9.78002e-18
8334.00456 9.84495e-18
8335.99894 9.89410e-18
8338.00334 9.91393e-18
8339.99772 9.93017e-18
8342.00212 9.97778e-18
8343.99650 1.00479e-17
8346.00090 1.01069e-17
8347.99527 1.01797e-17
8349.99967 1.02232e-17
8352.00407 1.02227e-17
8353.99845 1.02225e-17
8356.00285 1.02654e-17
8357.99723 1.03354e-17
8360.00163 1.03557e-17
8361.99601 1.03355e-17
8364.00041 1.03287e-17
8365.99479 1.03179e-17
8367.99919 1.03182e-17
8370.00359 1.03399e-17
8371.99796 1.03756e-17
8374.00236 1.04106e-17
8375.99674 1.04671e-17
8378.00114 1.04877e-17
8379.99552 1.04793e-17
8381.99992 1.04697e-17
8384.00432 1.04593e-17
8385.99870 1.04509e-17
8388.00310 1.04617e-17
8389.99748 1.04884e-17
8392.00188 1.05149e-17
8393.99625 1.05548e-17
8396.00065 1.05826e-17
8397.99503 1.05891e-17
8399.99943 1.05964e-17
8402.00383 1.06293e-17
8403.99821 1.06803e-17
8406.00261 1.07188e-17
8407.99699 1.07447e-17
8410.00139 1.07893e-17
8411.99577 1.08645e-17
8414.00017 1.09292e-17
8416.00457 1.09525e-17
8417.99894 1.09504e-17
8420.00334 1.09668e-17
8421.99772 1.09868e-17
8424.00212 1.10092e-17
8425.99650 1.10433e-17
8428.00090 1.10656e-17
8430.00530 1.10621e-17
8431.99968 1.10471e-17
8434.00408 1.10513e-17
8435.99846 1.10530e-17
8438.00286 1.10909e-17
8439.99723 1.11956e-17
8442.00163 1.12464e-17
8443.99601 1.12067e-17
8446.00041 1.11425e-17
8448.00481 1.11347e-17
8449.99919 1.11485e-17
8452.00359 1.11930e-17
8453.99797 1.12844e-17
8456.00237 1.13643e-17
8457.99675 1.14308e-17
8460.00115 1.15024e-17
8461.99552 1.16013e-17
8463.99992 1.17233e-17
8466.00432 1.17728e-17
8467.99870 1.17710e-17
8470.00310 1.17533e-17
8471.99748 1.17006e-17
8474.00188 1.16424e-17
8475.99626 1.15988e-17
8478.00066 1.15559e-17
8479.99504 1.14804e-17
8481.99944 1.13507e-17
8484.00384 1.12801e-17
8485.99821 1.12324e-17
8488.00261 1.12175e-17
8489.99699 1.12537e-17
8492.00139 1.13128e-17
8493.99577 1.13313e-17
8496.00017 1.13291e-17
8498.00457 1.13278e-17
8499.99895 1.13292e-17
8502.00335 1.13085e-17
8503.99773 1.12546e-17
8506.00213 1.11931e-17
8507.99650 1.11501e-17
8510.00090 1.11096e-17
8511.99528 1.11077e-17
8513.99968 1.11652e-17
8516.00408 1.11804e-17
8517.99846 1.11590e-17
8520.00286 1.11257e-17
8521.99724 1.10875e-17
8524.00164 1.10404e-17
8525.99602 1.10264e-17
8528.00042 1.10543e-17
8530.00482 1.10475e-17
8531.99919 1.09978e-17
8534.00359 1.09768e-17
8535.99797 1.10219e-17
8538.00237 1.10980e-17
8539.99675 1.11319e-17
8542.00115 1.11554e-17
8543.99553 1.11515e-17
8545.99993 1.11057e-17
8548.00433 1.10742e-17
8549.99871 1.10598e-17
8552.00311 1.10597e-17
8553.99748 1.10872e-17
8556.00188 1.11506e-17
8557.99626 1.11732e-17
8560.00066 1.11661e-17
8562.00506 1.11692e-17
8563.99944 1.11879e-17
8566.00384 1.12013e-17
8567.99822 1.11891e-17
8570.00262 1.11580e-17
8571.99700 1.11473e-17
8574.00140 1.11416e-17
8575.99577 1.11482e-17
8578.00017 1.11610e-17
8580.00457 1.11916e-17
8581.99895 1.12645e-17
8584.00335 1.13591e-17
8585.99773 1.13578e-17
8588.00213 1.12504e-17
8589.99651 1.12127e-17
8592.00091 1.12080e-17
8593.99529 1.11997e-17
8595.99969 1.11813e-17
8598.00409 1.11583e-17
8599.99846 1.11272e-17
8602.00286 1.10880e-17
8603.99724 1.10476e-17
8606.00164 1.10062e-17
8607.99602 1.09573e-17
8610.00042 1.08977e-17
8611.99480 1.08347e-17
8613.99920 1.07760e-17
8616.00360 1.07173e-17
8617.99798 1.06658e-17
8620.00238 1.06191e-17
8621.99675 1.05773e-17
8624.00115 1.05242e-17
8625.99553 1.04982e-17
8627.99993 1.05471e-17
8630.00433 1.06493e-17
8631.99871 1.06368e-17
8634.00311 1.05205e-17
8635.99749 1.04543e-17
8638.00189 1.03852e-17
8639.99627 1.03542e-17
8642.00067 1.04032e-17
8643.99504 1.04881e-17
8645.99944 1.04737e-17
8648.00384 1.03696e-17
8649.99822 1.03254e-17
8652.00262 1.03146e-17
8653.99700 1.02857e-17
8656.00140 1.02242e-17
8657.99578 1.01537e-17
8660.00018 1.01016e-17
8662.00458 1.00499e-17
8663.99896 1.00353e-17
8666.00336 1.00885e-17
8667.99773 1.00816e-17
8670.00213 9.99531e-18
8671.99651 9.89865e-18
8674.00091 9.85024e-18
8676.00531 9.82548e-18
8677.99969 9.79588e-18
8680.00409 9.77595e-18
8681.99847 9.74985e-18
8684.00287 9.71241e-18
8685.99725 9.68393e-18
8688.00165 9.67980e-18
8689.99602 9.68971e-18
8692.00042 9.67853e-18
8694.00482 9.66584e-18
8695.99920 9.62778e-18
8698.00360 9.54945e-18
8699.99798 9.48960e-18
8702.00238 9.46955e-18
8703.99676 9.46544e-18
8706.00116 9.44136e-18
8707.99554 9.40079e-18
8709.99994 9.38757e-18
8712.00434 9.39488e-18
8713.99871 9.40362e-18
8716.00311 9.42266e-18
8717.99749 9.43543e-18
8720.00189 9.41176e-18
8721.99627 9.35496e-18
8724.00067 9.33415e-18
8725.99505 9.33758e-18
8727.99945 9.33238e-18
8730.00385 9.33661e-18
8731.99823 9.31897e-18
8734.00263 9.24144e-18
8735.99700 9.12020e-18
8738.00140 9.06812e-18
8739.99578 9.05913e-18
8742.00018 9.05189e-18
8744.00458 9.06500e-18
8745.99896 9.07542e-18
8748.00336 9.07919e-18
8749.99774 9.07615e-18
8752.00214 9.04009e-18
8753.99652 8.94868e-18
8756.00092 8.91770e-18
8757.99529 8.94602e-18
8759.99969 8.93935e-18
8762.00409 8.86903e-18
8763.99847 8.77963e-18
8766.00287 8.73221e-18
8767.99725 8.71636e-18
8770.00165 8.65818e-18
8771.99603 8.57230e-18
8774.00043 8.48484e-18
8776.00483 8.38220e-18
8777.99921 8.28915e-18
8780.00361 8.23781e-18
8781.99798 8.21844e-18
8784.00238 8.17676e-18
8785.99676 8.13959e-18
8788.00116 8.07901e-18
8789.99554 7.98631e-18
8791.99994 7.89629e-18
8794.00434 7.82036e-18
8795.99872 7.75383e-18
8798.00312 7.74141e-18
8799.99750 7.78540e-18
8802.00190 7.82516e-18
8803.99627 7.90709e-18
8806.00067 7.95043e-18
8808.00507 7.93267e-18
8809.99945 7.87399e-18
8812.00385 7.78287e-18
8813.99823 7.61886e-18
8816.00263 7.53774e-18
8817.99701 7.49560e-18
8820.00141 7.48174e-18
8821.99579 7.51030e-18
8824.00019 7.55362e-18
8825.99456 7.57317e-18
8827.99896 7.59021e-18
8830.00336 7.57147e-18
8831.99774 7.49571e-18
8834.00214 7.46170e-18
8835.99652 7.46964e-18
8838.00092 7.48751e-18
8839.99530 7.49678e-18
8841.99970 7.50674e-18
8844.00410 7.51291e-18
8845.99848 7.51206e-18
8848.00288 7.51968e-18
8849.99725 7.53682e-18
8852.00165 7.55151e-18
8853.99603 7.55262e-18
8856.00043 7.55089e-18
8857.99481 7.58330e-18
8859.99921 7.66964e-18
8862.00361 7.69124e-18
8863.99799 7.65324e-18
8866.00239 7.64034e-18
8867.99677 7.67580e-18
8870.00117 7.72604e-18
8871.99554 7.75081e-18
8873.99994 7.76666e-18
8876.00434 7.77139e-18
8877.99872 7.72946e-18
8880.00312 7.74942e-18
8881.99750 7.87532e-18
8884.00190 7.99367e-18
8885.99628 7.98828e-18
8888.00068 7.90300e-18
8890.00508 7.82784e-18
8891.99946 7.69618e-18
8894.00386 7.62494e-18
8895.99823 7.60043e-18
8898.00263 7.60366e-18
8899.99701 7.63835e-18
8902.00141 7.70036e-18
8903.99579 7.71286e-18
8906.00019 7.67781e-18
8908.00459 7.67889e-18
8909.99897 7.69830e-18
8912.00337 7.72338e-18
8913.99775 7.75278e-18
8916.00215 7.78637e-18
8917.99652 7.81836e-18
8920.00092 7.86743e-18
8922.00532 7.86620e-18
8923.99970 7.81707e-18
8926.00410 7.77255e-18
8927.99848 7.73830e-18
8930.00288 7.70189e-18
8931.99726 7.65225e-18
8934.00166 7.58761e-18
8935.99604 7.54995e-18
8938.00044 7.52313e-18
8940.00484 7.51544e-18
8941.99921 7.54494e-18
8944.00361 7.56745e-18
8945.99799 7.54396e-18
8948.00239 7.49178e-18
8949.99677 7.45207e-18
8952.00117 7.40929e-18
8953.99555 7.36841e-18
8955.99995 7.31484e-18
8958.00435 7.28328e-18
8959.99873 7.29608e-18
8962.00313 7.33512e-18
8963.99750 7.35453e-18
8966.00190 7.39102e-18
8967.99628 7.37476e-18
8970.00068 7.28590e-18
8971.99506 7.23777e-18
8973.99946 7.26120e-18
8976.00386 7.31432e-18
8977.99824 7.34856e-18
8980.00264 7.38600e-18
8981.99702 7.41303e-18
8984.00142 7.42491e-18
8985.99579 7.44841e-18
8988.00019 7.48245e-18
8990.00459 7.52534e-18
8991.99897 7.58473e-18
8994.00337 7.66545e-18
8995.99775 7.68849e-18
8998.00215 7.65337e-18
8999.99653 7.64377e-18
9002.00093 7.64513e-18
9003.99531 7.65681e-18
9005.99971 7.68456e-18
9008.00411 7.72482e-18
9009.99848 7.75182e-18
9012.00288 7.76618e-18
9013.99726 7.79595e-18
9016.00166 7.84640e-18
9017.99604 7.88354e-18
9020.00044 7.89909e-18
9022.00484 7.89857e-18
9023.99922 7.87710e-18
9026.00362 7.81618e-18
9027.99800 7.79747e-18
9030.00240 7.78529e-18
9031.99677 7.81116e-18
9034.00117 7.90200e-18
9035.99555 8.00539e-18
9037.99995 8.04203e-18
9040.00435 8.02923e-18
9041.99873 8.06539e-18
9044.00313 8.14020e-18
9045.99751 8.18887e-18
9048.00191 8.23274e-18
9049.99629 8.24127e-18
9052.00069 8.16544e-18
9053.99506 8.01966e-18
9055.99946 7.98901e-18
9058.00386 8.04327e-18
9059.99824 8.07714e-18
9062.00264 8.12903e-18
9063.99702 8.15992e-18
9066.00142 8.14406e-18
9067.99580 8.10083e-18
9070.00020 8.07468e-18
9071.99458 8.00683e-18
9073.99898 8.04386e-18
9076.00338 8.20249e-18
9077.99775 8.31596e-18
9080.00215 8.34762e-18
9081.99653 8.34058e-18
9084.00093 8.32489e-18
9085.99531 8.26847e-18
9087.99971 8.26749e-18
9090.00411 8.31244e-18
9091.99849 8.34225e-18
9094.00289 8.35164e-18
9095.99727 8.36110e-18
9098.00167 8.38456e-18
9099.99604 8.41234e-18
9102.00044 8.47637e-18
9103.99482 8.61611e-18
9105.99922 8.67462e-18
9108.00362 8.66749e-18
9109.99800 8.62175e-18
9112.00240 8.53766e-18
9113.99678 8.41592e-18
9116.00118 8.33726e-18
9117.99556 8.25460e-18
9119.99996 8.23058e-18
9122.00436 8.26803e-18
9123.99873 8.31632e-18
9126.00313 8.38001e-18
9127.99751 8.44275e-18
9130.00191 8.41119e-18
9131.99629 8.25829e-18
9134.00069 8.22744e-18
9136.00509 8.28170e-18
9137.99947 8.31607e-18
9140.00387 8.32011e-18
9141.99825 8.31268e-18
9144.00265 8.30431e-18
9145.99702 8.29947e-18
9148.00142 8.24545e-18
9149.99580 8.10816e-18
9152.00020 8.04284e-18
9154.00460 8.04171e-18
9155.99898 8.08158e-18
9158.00338 8.16818e-18
9159.99776 8.30725e-18
9162.00216 8.35284e-18
9163.99654 8.32476e-18
9166.00094 8.31757e-18
9168.00534 8.30268e-18
9169.99971 8.30122e-18
9172.00411 8.32694e-18
9173.99849 8.37024e-18
9176.00289 8.41229e-18
9177.99727 8.47601e-18
9180.00167 8.50666e-18
9181.99605 8.52294e-18
9184.00045 8.51763e-18
9185.99483 8.47291e-18
9187.99923 8.41751e-18
9190.00363 8.41880e-18
9191.99800 8.47465e-18
9194.00240 8.47311e-18
9195.99678 8.42950e-18
9198.00118 8.40080e-18
9199.99556 8.38349e-18
9201.99996 8.37811e-18
9204.00436 8.39337e-18
9205.99874 8.42684e-18
9208.00314 8.46596e-18
9209.99752 8.52611e-18
9212.00192 8.57229e-18
9213.99629 8.59845e-18
9216.00069 8.63278e-18
9217.99507 8.69645e-18
9219.99947 8.77839e-18
9222.00387 8.84723e-18
9223.99825 8.95326e-18
9226.00265 8.96638e-18
9227.99703 8.89728e-18
9230.00143 8.80472e-18
9231.99581 8.69946e-18
9234.00021 8.57804e-18
9236.00461 8.46958e-18
9237.99898 8.33500e-18
9240.00338 8.28287e-18
9241.99776 8.31437e-18
9244.00216 8.33253e-18
9245.99654 8.33484e-18
9248.00094 8.32359e-18
9249.99532 8.27681e-18
9251.99972 8.19348e-18
9254.00412 8.13134e-18
9255.99850 8.07484e-18
9258.00290 8.01552e-18
9259.99727 7.93959e-18
9262.00167 7.88005e-18
9263.99605 7.87093e-18
9266.00045 7.89961e-18
9268.00485 7.91409e-18
9269.99923 7.96472e-18
9272.00363 7.94572e-18
9273.99801 7.83674e-18
9276.00241 7.74466e-18
9277.99679 7.71782e-18
9280.00119 7.72782e-18
9281.99556 7.77259e-18
9283.99996 7.89031e-18
9286.00436 7.95441e-18
9287.99874 8.00495e-18
9290.00314 8.03236e-18
9291.99752 8.04064e-18
9294.00192 8.02219e-18
9295.99630 7.94787e-18
9298.00070 7.78338e-18
9299.99508 7.73434e-18
9301.99948 7.77340e-18
9304.00388 7.79420e-18
9305.99825 7.80258e-18
9308.00265 7.79664e-18
9309.99703 7.75639e-18
9312.00143 7.68531e-18
9313.99581 7.62481e-18
9316.00021 7.52322e-18
9317.99459 7.49993e-18
9319.99899 7.59182e-18
9322.00339 7.66623e-18
9323.99777 7.61706e-18
9326.00217 7.49731e-18
9327.99654 7.48160e-18
9330.00094 7.55950e-18
9331.99532 7.56656e-18
9333.99972 7.49647e-18
9336.00412 7.47310e-18
9337.99850 7.56840e-18
9340.00290 7.71254e-18
9341.99728 7.74233e-18
9344.00168 7.67266e-18
9345.99606 7.67584e-18
9348.00046 7.74940e-18
9349.99483 7.75299e-18
9351.99923 7.66270e-18
9354.00363 7.51694e-18
9355.99801 7.32853e-18
9358.00241 7.02375e-18
9359.99679 6.98333e-18
9362.00119 7.23166e-18
9363.99557 7.32985e-18
9365.99997 7.25009e-18
9368.00437 7.15261e-18
9369.99875 7.15660e-18
9372.00315 7.21022e-18
9373.99752 7.26354e-18
9376.00192 7.39704e-18
9377.99630 7.40638e-18
9380.00070 7.26326e-18
9382.00510 7.14194e-18
9383.99948 7.13229e-18
9386.00388 7.17984e-18
9387.99826 7.23031e-18
9390.00266 7.33116e-18
9391.99704 7.38787e-18
9394.00144 7.43410e-18
9395.99581 7.45114e-18
9398.00021 7.41899e-18
9400.00461 7.36660e-18
9401.99899 7.36099e-18
9404.00339 7.39419e-18
9405.99777 7.38723e-18
9408.00217 7.36141e-18
9409.99655 7.32548e-18
9412.00095 7.26767e-18
9413.99533 7.21134e-18
9415.99973 7.18659e-18
9418.00413 7.17772e-18
9419.99850 7.20500e-18
9422.00290 7.33428e-18
9423.99728 7.34001e-18
9426.00168 7.17902e-18
9427.99606 7.03356e-18
9430.00046 7.02985e-18
9431.99484 7.10523e-18
9433.99924 7.18519e-18
9436.00364 7.38332e-18
9437.99802 7.41114e-18
9440.00242 7.26448e-18
9441.99679 7.13713e-18
9444.00119 7.10690e-18
9445.99557 7.11395e-18
9447.99997 7.08996e-18
9450.00437 7.02539e-18
9451.99875 7.04856e-18
9454.00315 7.16419e-18
9455.99753 7.25002e-18
9458.00193 7.28197e-18
9459.99631 7.29690e-18
9462.00071 7.33412e-18
9463.99508 7.39789e-18
9465.99948 7.37973e-18
9468.00388 7.25757e-18
9469.99826 7.20123e-18
9472.00266 7.21470e-18
9473.99704 7.25430e-18
9476.00144 7.30460e-18
9477.99582 7.38356e-18
9480.00022 7.35893e-18
9482.00462 7.19360e-18
9483.99900 7.14667e-18
9486.00340 7.22732e-18
9487.99777 7.28664e-18
9490.00217 7.24497e-18
9491.99655 7.14984e-18
9494.00095 7.05964e-18
9495.99533 6.91475e-18
9497.99973 6.84563e-18
9500.00413 6.80984e-18
9501.99851 6.82395e-18
9504.00291 6.92531e-18
9505.99729 7.05866e-18
9508.00169 7.08332e-18
9509.99606 7.03964e-18
9512.00046 6.98679e-18
9514.00486 6.88071e-18
9515.99924 6.79715e-18
9518.00364 6.72424e-18
9519.99802 6.68136e-18
9522.00242 6.72065e-18
9523.99680 6.84878e-18
9526.00120 6.85916e-18
9527.99558 6.78396e-18
9529.99998 6.73035e-18
9532.00438 6.64324e-18
9533.99875 6.61571e-18
9536.00315 6.75445e-18
9537.99753 7.01337e-18
9540.00193 7.11005e-18
9541.99631 7.11031e-18
9544.00071 7.11553e-18
9545.99509 7.09753e-18
9547.99949 7.06737e-18
9550.00389 7.02893e-18
9551.99827 6.98032e-18
9554.00267 6.92683e-18
9555.99704 6.85460e-18
9558.00144 6.80673e-18
9559.99582 6.76530e-18
9562.00022 6.74461e-18
9563.99460 6.75885e-18
9565.99900 6.78368e-18
9568.00340 6.77690e-18
9569.99778 6.75587e-18
9572.00218 6.71879e-18
9573.99656 6.63949e-18
9576.00096 6.59837e-18
9577.99533 6.59861e-18
9579.99973 6.61828e-18
9582.00413 6.65217e-18
9583.99851 6.71213e-18
9586.00291 6.69265e-18
9587.99729 6.56489e-18
9590.00169 6.53192e-18
9591.99607 6.58396e-18
9594.00047 6.65026e-18
9596.00487 6.70459e-18
9597.99925 6.75989e-18
9600.00365 6.77118e-18
9601.99802 6.72683e-18
9604.00242 6.71898e-18
9605.99680 6.74414e-18
9608.00120 6.74348e-18
9609.99558 6.68647e-18
9611.99998 6.60938e-18
9614.00438 6.58339e-18
9615.99876 6.58644e-18
9618.00316 6.59683e-18
9619.99754 6.64371e-18
9622.00194 6.66152e-18
9623.99631 6.63155e-18
9626.00071 6.59374e-18
9628.00511 6.59842e-18
9629.99949 6.63654e-18
9632.00389 6.62447e-18
9633.99827 6.56266e-18
9636.00267 6.53288e-18
9637.99705 6.53213e-18
9640.00145 6.54140e-18
9641.99583 6.55998e-18
9644.00023 6.59103e-18
9646.00463 6.55275e-18
9647.99900 6.38200e-18
9650.00340 6.37553e-18
9651.99778 6.54617e-18
9654.00218 6.68353e-18
9655.99656 6.69709e-18
9658.00096 6.65129e-18
9659.99534 6.61488e-18
9661.99974 6.51770e-18
9664.00414 6.51959e-18
9665.99852 6.63767e-18
9668.00292 6.69047e-18
9669.99729 6.62205e-18
9672.00169 6.51488e-18
9673.99607 6.48066e-18
9676.00047 6.49347e-18
9677.99485 6.45882e-18
9679.99925 6.39048e-18
9682.00365 6.33566e-18
9683.99803 6.29171e-18
9686.00243 6.25645e-18
9687.99681 6.22846e-18
9690.00121 6.20400e-18
9691.99558 6.22815e-18
9693.99998 6.29574e-18
9696.00438 6.37594e-18
9697.99876 6.52656e-18
9700.00316 6.61950e-18
9701.99754 6.55903e-18
9704.00194 6.40149e-18
9705.99632 6.30474e-18
9708.00072 6.17918e-18
9709.99510 6.13828e-18
9711.99950 6.16991e-18
9714.00390 6.22465e-18
9715.99827 6.30070e-18
9718.00267 6.39193e-18
9719.99705 6.45133e-18
9722.00145 6.49634e-18
9723.99583 6.52879e-18
9726.00023 6.54653e-18
9728.00463 6.55416e-18
9729.99901 6.55146e-18
9732.00341 6.53873e-18
9733.99779 6.51349e-18
9736.00219 6.46740e-18
9737.99656 6.46147e-18
9740.00096 6.49073e-18
9741.99534 6.51027e-18
9743.99974 6.53422e-18
9746.00414 6.54339e-18
9747.99852 6.51698e-18
9750.00292 6.46397e-18
9751.99730 6.41156e-18
9754.00170 6.29344e-18
9755.99608 6.29488e-18
9758.00048 6.42659e-18
9760.00488 6.55383e-18
9761.99925 6.62711e-18
9764.00365 6.67579e-18
9765.99803 6.68457e-18
9768.00243 6.62600e-18
9769.99681 6.61535e-18
9772.00121 6.64321e-18
9773.99559 6.64040e-18
9775.99999 6.57219e-18
9778.00439 6.49148e-18
9779.99877 6.48840e-18
9782.00317 6.54225e-18
9783.99754 6.57927e-18
9786.00194 6.63151e-18
9787.99632 6.67191e-18
9790.00072 6.72063e-18
9791.99510 6.73867e-18
9793.99950 6.66847e-18
9796.00390 6.52103e-18
9797.99828 6.43729e-18
9800.00268 6.35157e-18
9801.99706 6.32489e-18
9804.00146 6.37148e-18
9805.99583 6.43038e-18
9808.00023 6.46574e-18
9809.99461 6.49702e-18
9811.99901 6.53741e-18
9814.00341 6.60379e-18
9815.99779 6.62471e-18
9818.00219 6.61968e-18
9819.99657 6.58679e-18
9822.00097 6.49146e-18
9823.99535 6.38290e-18
9825.99975 6.42036e-18
9828.00415 6.62031e-18
9829.99852 6.67633e-18
9832.00292 6.65118e-18
9833.99730 6.63191e-18
9836.00170 6.62453e-18
9837.99608 6.61684e-18
9840.00048 6.60867e-18
9842.00488 6.60303e-18
9843.99926 6.58169e-18
9846.00366 6.53369e-18
9847.99804 6.51054e-18
9850.00244 6.50518e-18
9851.99681 6.51932e-18
9854.00121 6.56602e-18
9855.99559 6.64293e-18
9857.99999 6.67193e-18
9860.00439 6.68315e-18
9861.99877 6.66465e-18
9864.00317 6.59582e-18
9865.99755 6.53603e-18
9868.00195 6.51101e-18
9869.99633 6.50482e-18
9872.00073 6.51371e-18
9874.00513 6.54728e-18
9875.99950 6.57725e-18
9878.00390 6.64370e-18
9879.99828 6.65851e-18
9882.00268 6.57475e-18
9883.99706 6.46166e-18
9886.00146 6.44206e-18
9887.99584 6.48514e-18
9890.00024 6.50701e-18
9892.00464 6.54874e-18
9893.99902 6.56569e-18
9896.00342 6.53749e-18
9897.99779 6.51298e-18
9900.00219 6.55474e-18
9901.99657 6.65175e-18
9904.00097 6.65501e-18
9905.99535 6.58656e-18
9907.99975 6.53076e-18
9910.00415 6.44578e-18
9911.99853 6.39814e-18
9914.00293 6.44668e-18
9915.99731 6.55938e-18
9918.00171 6.62496e-18
9919.99608 6.71990e-18
9922.00048 6.71941e-18
9923.99486 6.59950e-18
9925.99926 6.50984e-18
9928.00366 6.50114e-18
9929.99804 6.53162e-18
9932.00244 6.56937e-18
9933.99682 6.67471e-18
9936.00122 6.65869e-18
9937.99560 6.50534e-18
9940.00000 6.42457e-18
9942.00440 6.46876e-18
9943.99877 6.54015e-18
9946.00317 6.51415e-18
9947.99755 6.40231e-18
9950.00195 6.44434e-18
9951.99633 6.66189e-18
9954.00073 6.75575e-18
9955.99511 6.71538e-18
9957.99951 6.64268e-18
9960.00391 6.59993e-18
9961.99829 6.55466e-18
9964.00269 6.55494e-18
9965.99706 6.62652e-18
9968.00146 6.63403e-18
9969.99584 6.59888e-18
9972.00024 6.53995e-18
9974.00464 6.44090e-18
9975.99902 6.32108e-18
9978.00342 6.31383e-18
9979.99780 6.43894e-18
9982.00220 6.46648e-18
9983.99658 6.43989e-18
9986.00098 6.42552e-18
9987.99535 6.43418e-18
9989.99975 6.45652e-18
9992.00415 6.49904e-18
9993.99853 6.56967e-18
9996.00293 6.62010e-18
9997.99731 6.68480e-18
10000.00171 6.70598e-18
