# wavelength flux
3893.99799 -1.46160e-18
3896.00239 -1.05462e-18
3897.99677 1.73809e-17
3900.00117 6.76441e-18
3901.99555 1.73207e-17
3903.99995 7.33887e-18
3906.00435 -6.89282e-19
3907.99872 1.04564e-17
3910.00312 1.22475e-17
3911.99750 1.84867e-17
3914.00190 1.24214e-17
3915.99628 1.17684e-17
3918.00068 5.52711e-18
3920.00508 5.47030e-19
3921.99946 3.33647e-18
3924.00386 2.83581e-18
3925.99824 8.47808e-18
3928.00264 1.34221e-17
3929.99701 2.24075e-17
3932.00141 1.14202e-17
3933.99579 7.84749e-18
3936.00019 9.93980e-18
3938.00459 5.22919e-18
3939.99897 5.84919e-19
3942.00337 -2.65822e-18
3943.99775 4.67835e-20
3946.00215 2.50008e-18
3947.99653 1.65512e-18
3950.00093 1.27667e-17
3951.99530 1.86710e-17
3953.99970 2.29843e-17
3956.00410 2.32255e-17
3957.99848 2.24901e-17
3960.00288 1.41733e-17
3961.99726 8.42413e-18
3964.00166 1.66804e-17
3965.99604 1.67752e-17
3968.00044 8.59370e-18
3970.00484 4.44817e-18
3971.99922 7.40798e-18
3974.00362 1.25687e-17
3975.99799 1.15584e-17
3978.00239 1.31467e-17
3979.99677 3.84965e-18
3982.00117 8.00931e-18
3983.99555 6.50168e-18
3985.99995 7.75358e-18
3988.00435 6.24294e-18
3989.99873 6.66073e-18
3992.00313 1.16495e-17
3993.99751 4.63381e-18
3996.00191 5.00985e-18
3997.99628 1.22706e-17
4000.00068 4.66783e-18
4001.99506 -2.50737e-19
4003.99946 -2.25548e-19
4006.00386 8.87959e-18
4007.99824 1.08160e-17
4010.00264 8.28826e-18
4011.99702 1.19287e-18
4014.00142 1.65942e-18
4015.99580 1.22013e-17
4018.00020 8.32692e-18
4020.00460 9.07520e-18
4021.99897 1.02641e-17
4024.00337 9.36550e-18
4025.99775 1.18005e-17
4028.00215 1.21366e-17
4029.99653 5.40560e-18
4032.00093 1.25882e-17
4033.99531 9.74409e-18
4035.99971 1.99013e-17
4038.00411 1.61924e-17
4039.99849 5.67567e-18
4042.00289 5.37451e-18
4043.99726 8.34338e-18
4046.00166 9.94880e-18
4047.99604 5.59070e-18
4050.00044 4.88856e-18
4052.00484 1.26075e-17
4053.99922 1.49356e-17
4056.00362 1.01627e-17
4057.99800 9.03849e-18
4060.00240 5.55934e-18
4061.99678 4.33067e-18
4064.00118 -5.98031e-19
4065.99555 6.43254e-18
4067.99995 1.60574e-17
4070.00435 1.97766e-17
4071.99873 1.13504e-17
4074.00313 1.85259e-17
4075.99751 9.46397e-18
4078.00191 1.06871e-18
4079.99629 -1.30803e-18
4082.00069 4.76223e-18
4083.99507 -8.31830e-19
4085.99947 5.55731e-18
4088.00387 7.91680e-18
4089.99824 -4.74967e-19
4092.00264 1.07601e-17
4093.99702 6.31000e-18
4096.00142 3.55967e-18
4097.99580 7.94366e-18
4100.00020 1.54506e-17
4102.00460 9.73781e-18
4103.99898 1.07553e-17
4106.00338 1.35939e-17
4107.99776 5.35306e-18
4110.00216 1.95960e-18
4111.99653 7.59119e-18
4114.00093 5.40938e-18
4115.99531 7.77483e-18
4117.99971 1.23576e-17
4120.00411 3.84378e-18
4121.99849 1.72859e-18
4124.00289 -2.20388e-19
4125.99727 7.64794e-18
4128.00167 8.28961e-18
4129.99605 1.00660e-17
4132.00045 -1.29141e-19
4134.00485 1.28512e-18
4135.99922 1.00320e-17
4138.00362 1.21438e-17
4139.99800 6.70542e-18
4142.00240 1.19952e-17
4143.99678 1.21865e-17
4146.00118 1.05899e-17
4147.99556 8.01474e-18
4149.99996 5.15171e-18
4152.00436 2.38022e-18
4153.99874 7.49956e-18
4156.00314 7.26969e-18
4157.99751 7.93661e-18
4160.00191 5.39990e-18
4161.99629 9.72618e-18
4164.00069 1.44516e-17
4165.99507 5.95299e-18
4167.99947 1.06498e-17
4170.00387 9.95346e-18
4171.99825 6.16597e-18
4174.00265 4.29053e-18
4175.99703 3.86561e-18
4178.00143 4.07475e-18
4179.99580 1.41774e-17
4182.00020 1.50210e-17
4184.00460 5.49976e-18
4185.99898 3.56641e-18
4188.00338 3.61181e-18
4189.99776 9.13287e-18
4192.00216 1.11971e-17
4193.99654 8.21234e-18
4196.00094 6.44154e-18
4197.99532 1.21704e-17
4199.99972 3.55839e-18
4202.00412 4.89851e-18
4203.99849 8.36213e-18
4206.00289 5.18048e-18
4207.99727 4.42585e-18
4210.00167 9.95502e-18
4211.99605 1.01586e-17
4214.00045 7.40568e-18
4216.00485 2.22932e-18
4217.99923 4.54166e-18
4220.00363 3.22960e-18
4221.99801 3.58992e-18
4224.00241 5.22871e-18
4225.99678 8.58084e-18
4228.00118 7.82812e-18
4229.99556 3.54772e-18
4231.99996 6.60808e-18
4234.00436 1.18931e-17
4235.99874 1.42272e-17
4238.00314 9.11972e-18
4239.99752 6.92601e-18
4242.00192 4.62054e-18
4243.99630 1.36936e-17
4246.00070 1.79096e-17
4247.99507 1.17135e-17
4249.99947 8.94527e-18
4252.00387 5.02678e-18
4253.99825 7.02898e-18
4256.00265 3.47739e-18
4257.99703 6.19895e-18
4260.00143 2.32595e-18
4261.99581 2.88094e-18
4264.00021 7.41320e-18
4266.00461 8.21743e-18
4267.99899 6.41321e-18
4270.00339 1.37829e-17
4271.99776 7.88833e-18
4274.00216 4.78996e-18
4275.99654 2.45324e-18
4278.00094 8.77825e-18
4279.99532 9.08171e-18
4281.99972 6.68704e-18
4284.00412 7.70430e-18
4285.99850 1.23872e-17
4288.00290 1.20901e-17
4289.99728 9.51254e-18
4292.00168 1.28803e-17
4293.99605 6.49595e-18
4296.00045 6.14045e-18
4297.99483 7.90721e-18
4299.99923 5.29872e-18
4302.00363 9.40726e-18
4303.99801 7.44202e-18
4306.00241 6.15187e-19
4307.99679 5.15140e-18
4310.00119 9.10870e-18
4311.99557 8.63130e-18
4313.99997 1.44773e-17
4316.00437 1.92326e-17
4317.99874 1.05533e-17
4320.00314 1.06093e-17
4321.99752 1.03167e-17
4324.00192 3.54533e-18
4325.99630 6.33289e-18
4328.00070 7.22187e-18
4330.00510 1.91278e-18
4331.99948 7.79073e-18
4334.00388 1.07308e-17
4335.99826 9.30385e-18
4338.00266 9.27082e-18
4339.99703 9.57098e-18
4342.00143 6.10741e-18
4343.99581 7.94873e-18
4346.00021 1.12220e-17
4348.00461 7.36204e-18
4349.99899 1.04219e-17
4352.00339 1.13417e-17
4353.99777 1.14160e-17
4356.00217 1.09709e-17
4357.99655 1.50849e-17
4360.00095 1.71046e-17
4361.99532 1.48104e-17
4363.99972 1.02955e-17
4366.00412 9.39956e-18
4367.99850 1.23135e-17
4370.00290 1.24633e-17
4371.99728 1.42325e-17
4374.00168 1.09723e-17
4375.99606 7.59111e-18
4378.00046 9.76419e-18
4380.00486 1.36601e-17
4381.99924 5.90261e-18
4384.00364 5.78621e-18
4385.99801 1.06628e-17
4388.00241 1.28088e-17
4389.99679 4.94323e-18
4392.00119 1.05964e-17
4393.99557 1.33457e-17
4395.99997 1.37936e-17
4398.00437 8.77146e-18
4399.99875 8.59717e-18
4402.00315 8.86811e-18
4403.99753 4.53455e-18
4406.00193 4.71925e-18
4407.99630 7.02162e-18
4410.00070 1.45348e-17
4411.99508 1.47164e-17
4413.99948 9.86563e-18
4416.00388 9.66686e-18
4417.99826 8.55407e-18
4420.00266 8.91158e-18
4421.99704 8.45591e-18
4424.00144 1.23327e-17
4425.99582 1.12143e-17
4428.00022 8.33253e-18
4430.00462 9.08295e-18
4431.99899 9.37511e-18
4434.00339 1.03986e-17
4435.99777 1.26605e-17
4438.00217 1.20961e-17
4439.99655 1.43704e-17
4442.00095 9.05850e-18
4443.99533 7.75584e-18
4445.99973 8.69021e-18
4448.00413 1.08530e-17
4449.99851 1.22059e-17
4452.00291 9.28633e-18
4453.99728 1.03928e-17
4456.00168 1.10745e-17
4457.99606 9.50479e-18
4460.00046 9.50590e-18
4462.00486 1.20611e-17
4463.99924 1.45738e-17
4466.00364 1.34389e-17
4467.99802 8.04782e-18
4470.00242 1.06150e-17
4471.99680 1.24624e-17
4474.00120 1.14010e-17
4475.99557 1.40587e-17
4477.99997 1.23596e-17
4480.00437 1.12138e-17
4481.99875 1.60622e-17
4484.00315 1.53126e-17
4485.99753 1.17509e-17
4488.00193 1.05899e-17
4489.99631 1.33280e-17
4492.00071 1.58196e-17
4493.99509 1.57267e-17
4495.99949 1.27382e-17
4498.00389 9.36333e-18
4499.99826 1.05196e-17
4502.00266 6.22242e-18
4503.99704 7.80764e-18
4506.00144 1.06455e-17
4507.99582 1.28763e-17
4510.00022 1.25274e-17
4512.00462 1.46511e-17
4513.99900 1.70100e-17
4516.00340 1.57541e-17
4517.99778 1.44817e-17
4520.00218 1.21251e-17
4521.99655 1.26201e-17
4524.00095 1.38572e-17
4525.99533 1.37000e-17
4527.99973 1.51192e-17
4530.00413 1.40287e-17
4531.99851 1.68897e-17
4534.00291 1.93532e-17
4535.99729 1.78481e-17
4538.00169 2.16353e-17
4539.99607 1.79169e-17
4542.00047 1.76547e-17
4543.99484 1.71168e-17
4545.99924 1.94752e-17
4548.00364 1.61072e-17
4549.99802 1.48011e-17
4552.00242 1.42440e-17
4553.99680 1.72893e-17
4556.00120 1.48948e-17
4557.99558 1.44707e-17
4559.99998 1.24979e-17
4562.00438 1.12457e-17
4563.99876 1.38019e-17
4566.00316 1.47881e-17
4567.99753 1.71919e-17
4570.00193 1.70182e-17
4571.99631 1.68279e-17
4574.00071 1.67664e-17
4576.00511 1.70221e-17
4577.99949 1.55372e-17
4580.00389 1.61851e-17
4581.99827 1.95070e-17
4584.00267 1.72549e-17
4585.99705 1.84590e-17
4588.00145 1.97049e-17
4589.99582 1.98433e-17
4592.00022 1.52455e-17
4594.00462 1.46188e-17
4595.99900 1.74869e-17
4598.00340 1.60700e-17
4599.99778 1.77914e-17
4602.00218 1.75630e-17
4603.99656 1.68897e-17
4606.00096 1.66667e-17
4607.99534 1.41110e-17
4609.99974 1.34034e-17
4612.00414 1.63679e-17
4613.99851 1.80269e-17
4616.00291 1.60186e-17
4617.99729 1.35757e-17
4620.00169 1.59667e-17
4621.99607 1.54531e-17
4624.00047 1.36252e-17
4626.00487 1.47621e-17
4627.99925 1.32389e-17
4630.00365 1.36028e-17
4631.99803 1.48823e-17
4634.00243 1.27052e-17
4635.99680 1.23065e-17
4638.00120 1.23365e-17
4639.99558 1.32890e-17
4641.99998 1.45957e-17
4644.00438 1.38051e-17
4645.99876 1.21534e-17
4648.00316 1.42954e-17
4649.99754 1.56340e-17
4652.00194 1.51218e-17
4653.99632 1.58978e-17
4656.00072 1.69890e-17
4657.99509 1.56065e-17
4659.99949 1.47775e-17
4662.00389 1.13399e-17
4663.99827 1.05625e-17
4666.00267 1.12489e-17
4667.99705 1.30472e-17
4670.00145 1.31290e-17
4671.99583 1.15924e-17
4674.00023 1.27285e-17
4676.00463 1.27386e-17
4677.99901 1.04672e-17
4680.00341 1.34817e-17
4681.99778 1.15554e-17
4684.00218 9.20802e-18
4685.99656 1.25587e-17
4688.00096 1.11983e-17
4689.99534 1.12169e-17
4691.99974 1.35103e-17
4694.00414 1.24200e-17
4695.99852 1.24449e-17
4698.00292 1.24603e-17
4699.99730 1.06576e-17
4702.00170 1.13085e-17
4703.99607 1.22673e-17
4706.00047 1.58463e-17
4708.00487 1.53776e-17
4709.99925 1.68175e-17
4712.00365 1.39889e-17
4713.99803 1.10160e-17
4716.00243 1.15488e-17
4717.99681 1.49273e-17
4720.00121 1.46051e-17
4721.99559 1.13888e-17
4723.99999 1.10915e-17
4726.00439 1.04349e-17
4727.99876 1.32117e-17
4730.00316 1.23427e-17
4731.99754 7.38302e-18
4734.00194 1.05229e-17
4735.99632 1.51834e-17
4738.00072 1.17038e-17
4739.99510 1.28875e-17
4741.99950 1.28761e-17
4744.00390 1.30759e-17
4745.99828 1.48416e-17
4748.00268 1.31945e-17
4749.99705 1.38196e-17
4752.00145 1.26989e-17
4753.99583 1.34777e-17
4756.00023 1.27360e-17
4758.00463 9.46369e-18
4759.99901 1.02122e-17
4762.00341 1.63324e-17
4763.99779 1.68078e-17
4766.00219 1.58120e-17
4767.99657 1.67457e-17
4770.00097 1.64802e-17
4771.99534 1.60049e-17
4773.99974 1.16146e-17
4776.00414 9.46150e-18
4777.99852 1.03880e-17
4780.00292 1.34438e-17
4781.99730 1.18419e-17
4784.00170 9.99415e-18
4785.99608 1.21415e-17
4788.00048 1.34124e-17
4789.99486 1.21243e-17
4791.99926 1.52255e-17
4794.00366 1.41032e-17
4795.99803 1.05037e-17
4798.00243 1.32192e-17
4799.99681 1.28011e-17
4802.00121 1.49986e-17
4803.99559 1.42175e-17
4805.99999 1.29222e-17
4808.00439 1.43868e-17
4809.99877 1.24786e-17
4812.00317 1.25039e-17
4813.99755 1.27088e-17
4816.00195 9.44196e-18
4817.99632 1.08933e-17
4820.00072 1.51801e-17
4822.00512 1.26128e-17
4823.99950 1.20918e-17
4826.00390 1.30108e-17
4827.99828 1.32508e-17
4830.00268 1.24689e-17
4831.99706 1.26789e-17
4834.00146 1.60917e-17
4835.99584 1.34798e-17
4838.00024 9.66649e-18
4840.00464 1.22831e-17
4841.99901 1.37929e-17
4844.00341 1.34613e-17
4845.99779 1.11128e-17
4848.00219 1.22534e-17
4849.99657 1.17532e-17
4852.00097 1.04862e-17
4853.99535 1.19581e-17
4855.99975 1.32610e-17
4858.00415 1.22592e-17
4859.99853 1.43002e-17
4862.00293 1.39789e-17
4863.99730 1.13627e-17
4866.00170 1.33883e-17
4867.99608 1.13496e-17
4870.00048 1.23066e-17
4872.00488 1.31025e-17
4873.99926 1.06809e-17
4876.00366 1.15855e-17
4877.99804 1.11586e-17
4880.00244 1.08631e-17
4881.99682 1.14900e-17
4884.00122 1.30423e-17
4885.99559 1.11396e-17
4887.99999 1.14988e-17
4890.00439 1.17807e-17
4891.99877 1.13128e-17
4894.00317 1.13517e-17
4895.99755 1.05603e-17
4898.00195 1.30724e-17
4899.99633 1.31538e-17
4902.00073 1.39790e-17
4903.99511 1.38700e-17
4905.99951 1.41070e-17
4908.00391 1.40207e-17
4909.99828 1.16785e-17
4912.00268 1.15844e-17
4913.99706 1.10263e-17
4916.00146 9.84849e-18
4917.99584 1.12511e-17
4920.00024 1.12824e-17
4922.00464 1.15210e-17
4923.99902 1.24412e-17
4926.00342 1.20741e-17
4927.99780 1.09937e-17
4930.00220 1.31516e-17
4931.99657 1.20779e-17
4934.00097 1.08241e-17
4935.99535 1.22760e-17
4937.99975 1.23361e-17
4940.00415 1.15098e-17
4941.99853 1.02249e-17
4944.00293 1.23961e-17
4945.99731 1.47618e-17
4948.00171 1.47343e-17
4949.99609 1.02261e-17
4952.00049 1.01015e-17
4953.99486 1.28207e-17
4955.99926 1.57344e-17
4958.00366 1.44611e-17
4959.99804 1.09995e-17
4962.00244 1.09849e-17
4963.99682 1.26051e-17
4966.00122 1.19264e-17
4967.99560 1.25792e-17
4970.00000 1.40855e-17
4972.00440 1.36718e-17
4973.99878 1.19229e-17
4976.00318 8.71507e-18
4977.99755 9.47975e-18
4980.00195 1.27040e-17
4981.99633 1.27903e-17
4984.00073 1.09733e-17
4985.99511 1.03684e-17
4987.99951 1.15018e-17
4990.00391 1.22809e-17
4991.99829 1.17638e-17
4994.00269 1.32199e-17
4995.99707 1.48921e-17
4998.00147 1.25854e-17
4999.99584 1.25618e-17
5002.00024 1.37163e-17
5004.00464 9.51427e-18
5005.99902 1.15163e-17
5008.00342 1.41274e-17
5009.99780 1.32119e-17
5012.00220 1.13601e-17
5013.99658 1.08357e-17
5016.00098 1.06444e-17
5017.99536 1.12387e-17
5019.99976 1.18341e-17
5022.00416 1.24203e-17
5023.99853 1.26745e-17
5026.00293 1.06928e-17
5027.99731 1.07393e-17
5030.00171 1.13162e-17
5031.99609 1.12061e-17
5034.00049 1.02904e-17
5036.00489 1.16714e-17
5037.99927 1.17905e-17
5040.00367 1.33866e-17
5041.99805 9.66134e-18
5044.00245 1.07998e-17
5045.99682 1.20460e-17
5048.00122 1.25256e-17
5049.99560 1.09601e-17
5052.00000 1.04571e-17
5054.00440 1.37035e-17
5055.99878 1.14363e-17
5058.00318 1.11805e-17
5059.99756 1.19637e-17
5062.00196 1.16048e-17
5063.99634 1.20791e-17
5066.00074 1.16720e-17
5068.00514 9.21166e-18
5069.99951 9.58336e-18
5072.00391 1.11981e-17
5073.99829 1.10966e-17
5076.00269 1.30550e-17
5077.99707 1.37193e-17
5080.00147 1.26863e-17
5081.99585 1.41403e-17
5084.00025 1.35120e-17
5086.00465 9.85849e-18
5087.99903 1.34576e-17
5090.00343 1.57881e-17
5091.99780 1.29398e-17
5094.00220 1.21994e-17
5095.99658 1.36908e-17
5098.00098 1.44823e-17
5099.99536 1.14982e-17
5101.99976 1.09890e-17
5104.00416 1.17939e-17
5105.99854 1.28465e-17
5108.00294 1.43171e-17
5109.99732 1.46113e-17
5112.00172 1.11378e-17
5113.99609 1.20686e-17
5116.00049 1.29466e-17
5118.00489 1.26573e-17
5119.99927 1.05032e-17
5122.00367 1.31311e-17
5123.99805 1.37307e-17
5126.00245 1.20390e-17
5127.99683 1.21710e-17
5130.00123 1.37034e-17
5131.99561 1.41002e-17
5134.00001 1.45997e-17
5136.00441 1.35267e-17
5137.99878 1.58596e-17
5140.00318 1.52182e-17
5141.99756 1.40296e-17
5144.00196 1.36816e-17
5145.99634 1.50708e-17
5148.00074 1.31008e-17
5149.99512 1.33752e-17
5151.99952 1.65466e-17
5154.00392 1.58302e-17
5155.99830 1.64606e-17
5158.00270 1.61898e-17
5159.99707 1.60390e-17
5162.00147 1.52221e-17
5163.99585 1.60006e-17
5166.00025 1.58217e-17
5168.00465 1.51825e-17
5169.99903 1.44427e-17
5172.00343 1.50908e-17
5173.99781 1.47793e-17
5176.00221 1.29897e-17
5177.99659 1.45231e-17
5180.00099 1.61797e-17
5181.99536 1.56385e-17
5183.99976 1.52933e-17
5186.00416 1.63027e-17
5187.99854 1.58744e-17
5190.00294 1.54462e-17
5191.99732 1.54444e-17
5194.00172 1.47922e-17
5195.99610 1.48604e-17
5198.00050 1.56853e-17
5199.99488 1.77432e-17
5201.99928 1.73391e-17
5204.00368 1.65901e-17
5205.99805 1.72337e-17
5208.00245 1.76078e-17
5209.99683 1.75399e-17
5212.00123 1.95092e-17
5213.99561 1.54032e-17
5216.00001 1.39918e-17
5218.00441 1.80242e-17
5219.99879 1.85071e-17
5222.00319 1.60879e-17
5223.99757 1.68069e-17
5226.00197 1.97329e-17
5227.99634 2.01024e-17
5230.00074 1.77370e-17
5231.99512 1.81514e-17
5233.99952 1.98271e-17
5236.00392 1.90720e-17
5237.99830 1.68926e-17
5240.00270 1.74576e-17
5241.99708 1.62148e-17
5244.00148 1.45615e-17
5245.99586 1.61298e-17
5248.00026 1.75445e-17
5250.00466 1.82285e-17
5251.99903 1.47848e-17
5254.00343 1.48778e-17
5255.99781 1.78123e-17
5258.00221 1.55864e-17
5259.99659 1.46681e-17
5262.00099 1.41360e-17
5263.99537 1.72007e-17
5265.99977 1.90272e-17
5268.00417 1.69366e-17
5269.99855 1.71211e-17
5272.00295 1.76297e-17
5273.99732 1.86136e-17
5276.00172 1.77964e-17
5277.99610 1.78415e-17
5280.00050 1.79690e-17
5282.00490 1.73889e-17
5283.99928 1.82445e-17
5286.00368 1.92856e-17
5287.99806 2.02040e-17
5290.00246 2.10643e-17
5291.99684 2.10314e-17
5294.00124 2.03182e-17
5295.99561 1.96299e-17
5298.00001 2.02588e-17
5300.00441 1.88280e-17
5301.99879 1.74461e-17
5304.00319 1.88232e-17
5305.99757 1.88559e-17
5308.00197 1.91549e-17
5309.99635 1.83800e-17
5312.00075 1.91254e-17
5313.99513 2.01713e-17
5315.99953 1.81742e-17
5318.00393 1.89808e-17
5319.99830 1.99179e-17
5322.00270 1.82358e-17
5323.99708 1.86391e-17
5326.00148 2.00805e-17
5327.99586 1.87351e-17
5330.00026 1.82295e-17
5332.00466 1.89535e-17
5333.99904 2.08627e-17
5336.00344 2.16170e-17
5337.99782 2.17104e-17
5340.00222 2.19570e-17
5341.99659 2.07576e-17
5344.00099 2.05346e-17
5345.99537 2.11857e-17
5347.99977 2.06484e-17
5350.00417 1.90154e-17
5351.99855 1.88735e-17
5354.00295 2.24939e-17
5355.99733 2.30042e-17
5358.00173 2.27017e-17
5359.99611 2.20218e-17
5362.00051 2.02874e-17
5364.00491 2.09834e-17
5365.99928 2.11565e-17
5368.00368 2.11576e-17
5369.99806 2.11207e-17
5372.00246 2.04400e-17
5373.99684 1.86365e-17
5376.00124 1.76426e-17
5377.99562 1.76225e-17
5380.00002 1.81638e-17
5382.00442 1.90967e-17
5383.99880 2.07532e-17
5386.00320 2.15488e-17
5387.99757 2.18370e-17
5390.00197 2.20849e-17
5391.99635 2.22425e-17
5394.00075 2.23044e-17
5395.99513 2.22854e-17
5397.99953 2.21650e-17
5400.00393 2.21039e-17
5401.99831 2.21601e-17
5404.00271 2.19802e-17
5405.99709 2.13622e-17
5408.00149 2.09607e-17
5409.99586 2.12428e-17
5412.00026 2.19498e-17
5414.00466 2.23553e-17
5415.99904 2.26174e-17
5418.00344 2.30530e-17
5419.99782 2.38055e-17
5422.00222 2.42887e-17
5423.99660 2.42755e-17
5426.00100 2.39399e-17
5427.99538 2.34513e-17
5429.99978 2.23322e-17
5432.00418 2.20566e-17
5433.99855 2.21863e-17
5436.00295 2.27161e-17
5437.99733 2.39222e-17
5440.00173 2.53408e-17
5441.99611 2.58973e-17
5444.00051 2.57659e-17
5445.99489 2.60817e-17
5447.99929 2.68421e-17
5450.00369 2.70245e-17
5451.99807 2.63311e-17
5454.00247 2.54444e-17
5455.99684 2.51230e-17
5458.00124 2.50239e-17
5459.99562 2.52607e-17
5462.00002 2.60870e-17
5464.00442 2.66129e-17
5465.99880 2.68710e-17
5468.00320 2.70443e-17
5469.99758 2.72327e-17
5472.00198 2.73889e-17
5473.99636 2.75067e-17
5476.00076 2.76135e-17
5477.99513 2.76284e-17
5479.99953 2.76376e-17
5482.00393 2.74683e-17
5483.99831 2.69306e-17
5486.00271 2.61482e-17
5487.99709 2.57849e-17
5490.00149 2.56949e-17
5491.99587 2.55834e-17
5494.00027 2.57104e-17
5496.00467 2.55924e-17
5497.99905 2.49056e-17
5500.00345 2.39932e-17
5501.99782 2.37391e-17
5504.00222 2.40437e-17
5505.99660 2.40534e-17
5508.00100 2.42297e-17
5509.99538 2.39961e-17
5511.99978 2.28862e-17
5514.00418 2.16766e-17
5515.99856 2.18259e-17
5518.00296 2.31127e-17
5519.99734 2.37957e-17
5522.00174 2.47132e-17
5523.99611 2.49935e-17
5526.00051 2.43970e-17
5528.00491 2.35219e-17
5529.99929 2.29587e-17
5532.00369 2.23767e-17
5533.99807 2.23094e-17
5536.00247 2.30780e-17
5537.99685 2.31551e-17
5540.00125 2.23998e-17
5541.99563 2.16363e-17
5544.00003 2.14577e-17
5546.00443 2.15873e-17
5547.99880 2.17429e-17
5550.00320 2.23013e-17
5551.99758 2.23589e-17
5554.00198 2.18632e-17
5555.99636 2.14301e-17
5558.00076 2.13756e-17
5559.99514 2.15050e-17
5561.99954 2.15752e-17
5564.00394 2.19636e-17
5565.99832 2.17008e-17
5568.00272 2.05295e-17
5569.99709 1.98562e-17
5572.00149 2.01669e-17
5573.99587 2.10066e-17
5576.00027 2.18295e-17
5578.00467 2.31242e-17
5579.99905 2.38063e-17
5582.00345 2.42347e-17
5583.99783 2.43223e-17
5586.00223 2.39033e-17
5587.99661 2.32749e-17
5590.00101 2.29551e-17
5591.99538 2.27063e-17
5593.99978 2.26660e-17
5596.00418 2.29281e-17
5597.99856 2.30835e-17
5600.00296 2.31307e-17
5601.99734 2.31374e-17
5604.00174 2.31123e-17
5605.99612 2.30156e-17
5608.00052 2.31423e-17
5610.00492 2.35850e-17
5611.99930 2.37546e-17
5614.00370 2.36867e-17
5615.99807 2.35136e-17
5618.00247 2.32116e-17
5619.99685 2.27647e-17
5622.00125 2.29671e-17
5623.99563 2.40970e-17
5626.00003 2.43730e-17
5628.00443 2.39726e-17
5629.99881 2.34659e-17
5632.00321 2.29646e-17
5633.99759 2.24424e-17
5636.00199 2.25607e-17
5637.99636 2.36093e-17
5640.00076 2.38128e-17
5641.99514 2.35553e-17
5643.99954 2.31701e-17
5646.00394 2.27036e-17
5647.99832 2.21353e-17
5650.00272 2.15727e-17
5651.99710 2.08425e-17
5654.00150 2.04759e-17
5655.99588 2.04355e-17
5658.00028 2.03644e-17
5660.00468 2.02206e-17
5661.99905 2.00824e-17
5664.00345 1.99799e-17
5665.99783 1.98240e-17
5668.00223 2.00336e-17
5669.99661 2.06369e-17
5672.00101 2.11504e-17
5673.99539 2.18559e-17
5675.99979 2.22408e-17
5678.00419 2.15628e-17
5679.99857 1.99541e-17
5682.00297 1.93395e-17
5683.99734 1.92942e-17
5686.00174 1.91585e-17
5687.99612 1.89544e-17
5690.00052 1.88958e-17
5691.99490 1.91496e-17
5693.99930 1.96363e-17
5696.00370 1.99487e-17
5697.99808 2.03897e-17
5700.00248 2.04305e-17
5701.99686 1.99874e-17
5704.00126 1.95998e-17
5705.99563 1.94676e-17
5708.00003 1.94658e-17
5710.00443 1.96165e-17
5711.99881 2.02582e-17
5714.00321 2.02188e-17
5715.99759 1.94353e-17
5718.00199 1.90317e-17
5719.99637 1.93956e-17
5722.00077 2.00614e-17
5723.99515 2.03569e-17
5725.99955 2.06684e-17
5728.00395 2.04675e-17
5729.99832 1.94816e-17
5732.00272 1.89685e-17
5733.99710 1.90625e-17
5736.00150 1.94624e-17
5737.99588 2.00116e-17
5740.00028 2.09714e-17
5742.00468 2.11903e-17
5743.99906 2.08724e-17
5746.00346 2.05121e-17
5747.99784 1.99075e-17
5750.00224 1.93871e-17
5751.99661 1.93313e-17
5754.00101 1.95893e-17
5755.99539 1.98775e-17
5757.99979 2.05368e-17
5760.00419 2.07883e-17
5761.99857 2.06239e-17
5764.00297 2.04086e-17
5765.99735 2.03006e-17
5768.00175 2.02154e-17
5769.99613 2.04295e-17
5772.00053 2.11606e-17
5774.00493 2.13775e-17
5775.99930 2.12995e-17
5778.00370 2.10234e-17
5779.99808 2.04010e-17
5782.00248 1.96235e-17
5783.99686 1.96269e-17
5786.00126 2.07401e-17
5787.99564 2.06044e-17
5790.00004 1.91558e-17
5792.00444 1.85192e-17
5793.99882 1.93928e-17
5796.00322 2.08477e-17
5797.99759 2.15766e-17
5800.00199 2.22869e-17
5801.99637 2.21219e-17
5804.00077 2.07265e-17
5805.99515 1.99103e-17
5807.99955 1.97440e-17
5810.00395 1.99624e-17
5811.99833 2.05303e-17
5814.00273 2.15632e-17
5815.99711 2.24165e-17
5818.00151 2.35560e-17
5819.99588 2.41921e-17
5822.00028 2.44384e-17
5824.00468 2.42554e-17
5825.99906 2.34479e-17
5828.00346 2.20265e-17
5829.99784 2.10854e-17
5832.00224 1.99047e-17
5833.99662 1.96067e-17
5836.00102 2.03611e-17
5837.99540 2.12100e-17
5839.99980 2.17166e-17
5842.00420 2.21150e-17
5843.99857 2.19987e-17
5846.00297 2.12500e-17
5847.99735 2.07310e-17
5850.00175 2.01476e-17
5851.99613 1.96852e-17
5854.00053 1.93810e-17
5856.00493 1.92229e-17
5857.99931 1.93420e-17
5860.00371 1.99802e-17
5861.99809 2.00810e-17
5864.00249 1.96722e-17
5865.99686 1.95626e-17
5868.00126 2.00953e-17
5869.99564 2.07433e-17
5872.00004 2.06066e-17
5874.00444 1.96981e-17
5875.99882 1.96365e-17
5878.00322 2.01309e-17
5879.99760 2.05546e-17
5882.00200 2.08540e-17
5883.99638 2.12039e-17
5886.00078 2.18265e-17
5887.99515 2.28057e-17
5889.99955 2.28728e-17
5892.00395 2.17183e-17
5893.99833 2.15599e-17
5896.00273 2.29372e-17
5897.99711 2.39259e-17
5900.00151 2.28001e-17
5901.99589 2.02332e-17
5904.00029 1.90421e-17
5906.00469 1.82476e-17
5907.99907 1.79332e-17
5910.00347 1.84192e-17
5911.99784 1.88629e-17
5914.00224 1.87359e-17
5915.99662 1.83681e-17
5918.00102 1.84952e-17
5919.99540 1.91448e-17
5921.99980 1.93546e-17
5924.00420 1.92758e-17
5925.99858 1.92002e-17
5928.00298 1.90906e-17
5929.99736 1.90468e-17
5932.00176 1.96432e-17
5933.99613 2.14176e-17
5936.00053 2.15181e-17
5937.99491 2.00198e-17
5939.99931 1.91447e-17
5942.00371 1.94199e-17
5943.99809 2.00090e-17
5946.00249 1.98929e-17
5947.99687 1.92592e-17
5950.00127 1.92221e-17
5951.99565 1.95907e-17
5954.00005 1.98954e-17
5956.00445 2.01479e-17
5957.99882 2.03908e-17
5960.00322 2.06508e-17
5961.99760 2.09729e-17
5964.00200 2.09133e-17
5965.99638 2.05916e-17
5968.00078 2.00862e-17
5970.00518 1.89132e-17
5971.99956 1.81715e-17
5974.00396 1.89510e-17
5975.99834 2.08088e-17
5978.00274 2.13452e-17
5979.99711 2.12465e-17
5982.00151 2.09413e-17
5983.99589 1.99902e-17
5986.00029 1.92657e-17
5988.00469 1.92455e-17
5989.99907 1.96175e-17
5992.00347 1.98917e-17
5993.99785 2.05020e-17
5996.00225 2.05846e-17
5997.99663 2.01126e-17
6000.00103 1.98157e-17
6001.99540 1.99330e-17
6003.99980 2.02282e-17
6006.00420 2.04183e-17
6007.99858 2.07110e-17
6010.00298 2.07129e-17
6011.99736 2.04340e-17
6014.00176 2.01873e-17
6015.99614 1.99763e-17
6018.00054 1.97995e-17
6020.00494 1.97184e-17
6021.99932 1.96631e-17
6024.00372 1.98713e-17
6025.99809 2.05030e-17
6028.00249 2.08539e-17
6029.99687 2.09682e-17
6032.00127 2.08785e-17
6033.99565 2.04816e-17
6036.00005 1.97304e-17
6038.00445 1.94543e-17
6039.99883 1.95566e-17
6042.00323 1.94865e-17
6043.99761 1.92359e-17
6046.00201 1.90377e-17
6047.99638 1.90547e-17
6050.00078 1.92088e-17
6051.99516 1.92841e-17
6053.99956 1.94312e-17
6056.00396 1.94018e-17
6057.99834 1.89904e-17
6060.00274 1.88717e-17
6061.99712 1.95545e-17
6064.00152 2.06202e-17
6065.99590 2.06934e-17
6068.00030 1.99632e-17
6070.00470 1.94754e-17
6071.99907 1.86052e-17
6074.00347 1.82267e-17
6075.99785 1.87765e-17
6078.00225 1.97010e-17
6079.99663 1.99252e-17
6082.00103 1.97312e-17
6083.99541 1.96677e-17
6085.99981 1.93571e-17
6088.00421 1.94040e-17
6089.99859 2.00835e-17
6092.00299 2.08602e-17
6093.99736 2.09892e-17
6096.00176 2.07199e-17
6097.99614 2.04010e-17
6100.00054 1.96792e-17
6101.99492 1.92868e-17
6103.99932 1.92737e-17
6106.00372 1.93714e-17
6107.99810 1.93956e-17
6110.00250 1.94526e-17
6111.99688 1.93219e-17
6114.00128 1.88227e-17
6115.99565 1.87546e-17
6118.00005 1.91861e-17
6120.00445 1.96105e-17
6121.99883 1.97242e-17
6124.00323 1.96868e-17
6125.99761 1.96150e-17
6128.00201 1.94015e-17
6129.99639 1.92646e-17
6132.00079 1.90116e-17
6133.99517 1.90045e-17
6135.99957 1.95343e-17
6138.00397 2.03317e-17
6139.99834 2.05411e-17
6142.00274 2.03050e-17
6143.99712 2.02145e-17
6146.00152 2.01443e-17
6147.99590 1.99556e-17
6150.00030 1.95176e-17
6152.00470 1.90260e-17
6153.99908 1.88993e-17
6156.00348 1.89893e-17
6157.99786 1.92291e-17
6160.00226 1.99421e-17
6161.99663 2.02472e-17
6164.00103 1.99050e-17
6165.99541 1.94329e-17
6167.99981 1.94577e-17
6170.00421 1.97947e-17
6171.99859 1.99449e-17
6174.00299 2.00521e-17
6175.99737 2.01651e-17
6178.00177 2.02867e-17
6179.99615 2.03978e-17
6182.00055 2.05626e-17
6183.99492 2.08181e-17
6185.99932 2.03421e-17
6188.00372 1.86955e-17
6189.99810 1.81433e-17
6192.00250 1.86789e-17
6193.99688 1.92623e-17
6196.00128 1.93013e-17
6197.99566 1.91236e-17
6200.00006 1.91773e-17
6202.00446 1.94233e-17
6203.99884 1.94729e-17
6206.00324 1.94174e-17
6207.99761 1.92774e-17
6210.00201 1.90165e-17
6211.99639 1.86829e-17
6214.00079 1.84840e-17
6215.99517 1.83373e-17
6217.99957 1.82627e-17
6220.00397 1.83342e-17
6221.99835 1.83287e-17
6224.00275 1.81937e-17
6225.99713 1.79982e-17
6228.00153 1.78101e-17
6229.99590 1.75707e-17
6232.00030 1.74258e-17
6234.00470 1.74025e-17
6235.99908 1.72887e-17
6238.00348 1.69462e-17
6239.99786 1.66726e-17
6242.00226 1.68985e-17
6243.99664 1.75907e-17
6246.00104 1.77193e-17
6247.99542 1.74704e-17
6249.99982 1.72931e-17
6252.00422 1.69961e-17
6253.99859 1.68811e-17
6256.00299 1.73660e-17
6257.99737 1.83381e-17
6260.00177 1.84483e-17
6261.99615 1.78164e-17
6264.00055 1.75133e-17
6266.00495 1.72916e-17
6267.99933 1.72248e-17
6270.00373 1.75331e-17
6271.99811 1.80606e-17
6274.00251 1.77306e-17
6275.99688 1.62359e-17
6278.00128 1.58615e-17
6279.99566 1.63374e-17
6282.00006 1.67629e-17
6284.00446 1.68616e-17
6285.99884 1.68512e-17
6288.00324 1.68532e-17
6289.99762 1.68426e-17
6292.00202 1.67431e-17
6293.99640 1.64184e-17
6296.00080 1.63174e-17
6297.99517 1.65648e-17
6299.99957 1.69679e-17
6302.00397 1.73005e-17
6303.99835 1.77712e-17
6306.00275 1.78100e-17
6307.99713 1.73623e-17
6310.00153 1.71169e-17
6311.99591 1.71500e-17
6314.00031 1.72167e-17
6316.00471 1.70968e-17
6317.99909 1.68708e-17
6320.00349 1.66597e-17
6321.99786 1.62390e-17
6324.00226 1.61816e-17
6325.99664 1.65245e-17
6328.00104 1.69906e-17
6329.99542 1.74451e-17
6331.99982 1.79761e-17
6334.00422 1.81426e-17
6335.99860 1.79288e-17
6338.00300 1.78685e-17
6339.99738 1.78899e-17
6342.00178 1.78835e-17
6343.99615 1.78067e-17
6346.00055 1.76845e-17
6347.99493 1.75193e-17
6349.99933 1.71069e-17
6352.00373 1.71261e-17
6353.99811 1.75348e-17
6356.00251 1.79405e-17
6357.99689 1.83297e-17
6360.00129 1.86585e-17
6361.99567 1.85282e-17
6364.00007 1.78311e-17
6366.00447 1.75712e-17
6367.99884 1.73596e-17
6370.00324 1.74371e-17
6371.99762 1.79943e-17
6374.00202 1.86905e-17
6375.99640 1.89629e-17
6378.00080 1.90031e-17
6379.99518 1.90070e-17
6381.99958 1.88810e-17
6384.00398 1.87207e-17
6385.99836 1.84141e-17
6388.00276 1.81826e-17
6389.99713 1.83341e-17
6392.00153 1.88061e-17
6393.99591 1.89657e-17
6396.00031 1.90010e-17
6398.00471 1.89725e-17
6399.99909 1.88007e-17
6402.00349 1.86501e-17
6403.99787 1.86442e-17
6406.00227 1.87219e-17
6407.99665 1.88358e-17
6410.00105 1.90352e-17
6411.99542 1.92126e-17
6413.99982 1.94497e-17
6416.00422 1.96006e-17
6417.99860 1.95765e-17
6420.00300 1.94418e-17
6421.99738 1.93494e-17
6424.00178 1.90423e-17
6425.99616 1.91991e-17
6428.00056 1.99768e-17
6429.99494 2.04179e-17
6431.99934 2.01290e-17
6434.00374 1.95657e-17
6435.99811 1.95168e-17
6438.00251 1.97640e-17
6439.99689 1.99643e-17
6442.00129 2.03783e-17
6443.99567 2.05580e-17
6446.00007 2.03459e-17
6448.00447 2.00405e-17
6449.99885 2.00530e-17
6452.00325 2.02752e-17
6453.99763 2.03636e-17
6456.00203 2.04001e-17
6457.99640 2.04661e-17
6460.00080 2.05867e-17
6461.99518 2.06908e-17
6463.99958 2.07273e-17
6466.00398 2.07372e-17
6467.99836 2.05501e-17
6470.00276 2.00505e-17
6471.99714 1.97778e-17
6474.00154 1.97142e-17
6475.99592 1.96805e-17
6478.00032 1.95498e-17
6480.00472 1.93850e-17
6481.99909 1.94247e-17
6484.00349 1.97568e-17
6485.99787 1.98246e-17
6488.00227 1.97145e-17
6489.99665 1.95480e-17
6492.00105 1.93063e-17
6493.99543 1.90300e-17
6495.99983 1.90514e-17
6498.00423 1.92536e-17
6499.99861 1.96212e-17
6502.00301 2.04585e-17
6503.99738 2.09416e-17
6506.00178 2.07956e-17
6507.99616 2.03551e-17
6510.00056 2.00937e-17
6512.00496 1.97671e-17
6513.99934 1.96307e-17
6516.00374 1.96205e-17
6517.99812 1.96943e-17
6520.00252 1.98782e-17
6521.99690 2.01233e-17
6524.00130 2.03778e-17
6525.99567 2.07519e-17
6528.00007 2.07172e-17
6530.00447 2.01533e-17
6531.99885 1.99378e-17
6534.00325 2.01679e-17
6535.99763 2.04173e-17
6538.00203 2.03332e-17
6539.99641 2.00623e-17
6542.00081 1.98076e-17
6543.99519 1.94067e-17
6545.99959 1.91593e-17
6548.00399 1.89686e-17
6549.99836 1.89346e-17
6552.00276 1.92082e-17
6553.99714 1.97060e-17
6556.00154 1.98117e-17
6557.99592 1.96128e-17
6560.00032 1.95292e-17
6562.00472 1.94410e-17
6563.99910 1.93862e-17
6566.00350 1.93764e-17
6567.99788 1.94058e-17
6570.00228 1.94950e-17
6571.99665 1.96539e-17
6574.00105 1.98208e-17
6575.99543 2.01080e-17
6577.99983 2.02547e-17
6580.00423 2.02016e-17
6581.99861 2.00215e-17
6584.00301 1.97715e-17
6585.99739 1.93574e-17
6588.00179 1.91001e-17
6589.99617 1.87568e-17
6592.00057 1.87473e-17
6593.99494 1.92832e-17
6595.99934 1.99107e-17
6598.00374 2.00414e-17
6599.99812 1.98525e-17
6602.00252 1.98297e-17
6603.99690 1.98791e-17
6606.00130 1.98097e-17
6607.99568 1.95928e-17
6610.00008 1.93464e-17
6612.00448 1.91369e-17
6613.99886 1.89156e-17
6616.00326 1.89188e-17
6617.99763 1.92563e-17
6620.00203 1.93255e-17
6621.99641 1.91202e-17
6624.00081 1.89505e-17
6625.99519 1.90181e-17
6627.99959 1.92032e-17
6630.00399 1.91621e-17
6631.99837 1.89105e-17
6634.00277 1.87978e-17
6635.99715 1.87543e-17
6638.00155 1.87221e-17
6639.99592 1.86921e-17
6642.00032 1.86668e-17
6644.00472 1.86152e-17
6645.99910 1.85925e-17
6648.00350 1.84387e-17
6649.99788 1.80944e-17
6652.00228 1.78608e-17
6653.99666 1.78284e-17
6656.00106 1.78619e-17
6657.99544 1.77667e-17
6659.99984 1.75530e-17
6662.00424 1.75409e-17
6663.99861 1.76959e-17
6666.00301 1.78254e-17
6667.99739 1.79728e-17
6670.00179 1.80709e-17
6671.99617 1.79844e-17
6674.00057 1.77227e-17
6676.00497 1.76406e-17
6677.99935 1.77115e-17
6680.00375 1.76626e-17
6681.99813 1.74609e-17
6684.00253 1.72692e-17
6685.99690 1.72258e-17
6688.00130 1.72754e-17
6689.99568 1.71981e-17
6692.00008 1.70040e-17
6694.00448 1.69000e-17
6695.99886 1.67693e-17
6698.00326 1.67948e-17
6699.99764 1.72072e-17
6702.00204 1.78372e-17
6703.99642 1.77912e-17
6706.00082 1.70161e-17
6707.99519 1.67494e-17
6709.99959 1.67059e-17
6712.00399 1.67455e-17
6713.99837 1.68270e-17
6716.00277 1.69863e-17
6717.99715 1.72697e-17
6720.00155 1.79120e-17
6721.99593 1.79522e-17
6724.00033 1.74759e-17
6726.00473 1.70636e-17
6727.99911 1.67289e-17
6730.00351 1.64707e-17
6731.99788 1.64718e-17
6734.00228 1.67801e-17
6735.99666 1.67820e-17
6738.00106 1.65545e-17
6739.99544 1.64417e-17
6741.99984 1.64528e-17
6744.00424 1.65173e-17
6745.99862 1.66131e-17
6748.00302 1.67832e-17
6749.99740 1.67619e-17
6752.00180 1.64813e-17
6753.99617 1.64218e-17
6756.00057 1.65898e-17
6758.00497 1.67990e-17
6759.99935 1.69733e-17
6762.00375 1.71635e-17
6763.99813 1.70435e-17
6766.00253 1.65701e-17
6767.99691 1.62430e-17
6770.00131 1.59021e-17
6771.99569 1.56710e-17
6774.00009 1.56390e-17
6776.00449 1.57426e-17
6777.99886 1.58123e-17
6780.00326 1.60494e-17
6781.99764 1.59832e-17
6784.00204 1.56519e-17
6785.99642 1.53129e-17
6788.00082 1.49446e-17
6789.99520 1.46185e-17
6791.99960 1.47086e-17
6794.00400 1.53202e-17
6795.99838 1.54658e-17
6798.00278 1.53145e-17
6799.99715 1.52418e-17
6802.00155 1.53224e-17
6803.99593 1.54204e-17
6806.00033 1.53868e-17
6808.00473 1.52671e-17
6809.99911 1.51460e-17
6812.00351 1.49836e-17
6813.99789 1.48197e-17
6816.00229 1.45779e-17
6817.99667 1.44146e-17
6820.00107 1.45494e-17
6821.99544 1.49485e-17
6823.99984 1.50149e-17
6826.00424 1.47624e-17
6827.99862 1.47633e-17
6830.00302 1.50723e-17
6831.99740 1.53328e-17
6834.00180 1.52837e-17
6835.99618 1.50518e-17
6838.00058 1.49989e-17
6839.99496 1.50442e-17
6841.99936 1.50442e-17
6844.00376 1.50405e-17
6845.99813 1.50484e-17
6848.00253 1.50563e-17
6849.99691 1.50642e-17
6852.00131 1.50721e-17
6853.99569 1.50799e-17
6856.00009 1.50878e-17
6858.00449 1.50957e-17
6859.99887 1.51036e-17
6862.00327 1.51115e-17
6863.99765 1.51193e-17
6866.00205 1.51272e-17
6867.99642 1.51351e-17
6870.00082 1.51430e-17
6871.99520 1.51509e-17
6873.99960 1.51587e-17
6876.00400 1.51666e-17
6877.99838 1.51745e-17
6880.00278 1.51823e-17
6881.99716 1.51902e-17
6884.00156 1.51981e-17
6885.99594 1.52060e-17
6888.00034 1.52138e-17
6890.00474 1.52217e-17
6891.99911 1.52295e-17
6894.00351 1.52374e-17
6895.99789 1.52453e-17
6898.00229 1.52531e-17
6899.99667 1.52610e-17
6902.00107 1.52689e-17
6903.99545 1.52767e-17
6905.99985 1.52846e-17
6908.00425 1.52924e-17
6909.99863 1.53003e-17
6912.00303 1.53081e-17
6913.99740 1.53160e-17
6916.00180 1.53238e-17
6917.99618 1.53317e-17
6920.00058 1.53395e-17
6922.00498 1.53474e-17
6923.99936 1.53552e-17
6926.00376 1.53631e-17
6927.99814 1.53709e-17
6930.00254 1.53788e-17
6931.99692 1.53866e-17
6934.00132 1.53945e-17
6935.99569 1.54023e-17
6938.00009 1.54628e-17
6940.00449 1.56140e-17
6941.99887 1.59115e-17
6944.00327 1.59564e-17
6945.99765 1.57135e-17
6948.00205 1.56437e-17
6949.99643 1.58753e-17
6952.00083 1.61271e-17
6953.99521 1.60647e-17
6955.99961 1.58015e-17
6958.00401 1.55186e-17
6959.99838 1.49388e-17
6962.00278 1.47303e-17
6963.99716 1.49568e-17
6966.00156 1.52988e-17
6967.99594 1.55395e-17
6970.00034 1.58002e-17
6972.00474 1.58409e-17
6973.99912 1.56144e-17
6976.00352 1.55260e-17
6977.99790 1.55103e-17
6980.00230 1.55358e-17
6981.99667 1.56043e-17
6984.00107 1.57138e-17
6985.99545 1.57953e-17
6987.99985 1.59228e-17
6990.00425 1.59324e-17
6991.99863 1.58032e-17
6994.00303 1.57012e-17
6995.99741 1.57004e-17
6998.00181 1.57366e-17
6999.99619 1.57000e-17
7002.00059 1.57161e-17
7003.99496 1.54799e-17
7005.99936 1.48307e-17
7008.00376 1.44731e-17
7009.99814 1.46265e-17
7012.00254 1.49759e-17
7013.99692 1.50877e-17
7016.00132 1.51468e-17
7017.99570 1.50952e-17
7020.00010 1.48099e-17
7022.00450 1.47054e-17
7023.99888 1.48534e-17
7026.00328 1.50684e-17
7027.99765 1.51622e-17
7030.00205 1.52043e-17
7031.99643 1.52762e-17
7034.00083 1.54374e-17
7035.99521 1.54238e-17
7037.99961 1.51661e-17
7040.00401 1.49025e-17
7041.99839 1.48074e-17
7044.00279 1.47929e-17
7045.99717 1.49162e-17
7048.00157 1.53333e-17
7049.99594 1.54827e-17
7052.00034 1.54335e-17
7054.00474 1.53012e-17
7055.99912 1.50932e-17
7058.00352 1.48140e-17
7059.99790 1.47309e-17
7062.00230 1.48638e-17
7063.99668 1.48318e-17
7066.00108 1.46329e-17
7067.99546 1.45454e-17
7069.99986 1.46907e-17
7072.00426 1.49513e-17
7073.99863 1.51187e-17
7076.00303 1.53047e-17
7077.99741 1.53839e-17
7080.00181 1.53649e-17
7081.99619 1.53302e-17
7084.00059 1.52605e-17
7085.99497 1.51944e-17
7087.99937 1.52456e-17
7090.00377 1.54393e-17
7091.99815 1.54271e-17
7094.00255 1.52479e-17
7095.99692 1.51092e-17
7098.00132 1.50411e-17
7099.99570 1.49531e-17
7102.00010 1.47103e-17
7104.00450 1.42778e-17
7105.99888 1.43768e-17
7108.00328 1.50657e-17
7109.99766 1.54356e-17
7112.00206 1.55624e-17
7113.99644 1.55808e-17
7116.00084 1.55251e-17
7117.99521 1.53691e-17
7119.99961 1.53142e-17
7122.00401 1.53542e-17
7123.99839 1.52879e-17
7126.00279 1.50540e-17
7127.99717 1.49177e-17
7130.00157 1.50809e-17
7131.99595 1.53975e-17
7134.00035 1.53471e-17
7136.00475 1.48632e-17
7137.99913 1.47919e-17
7140.00353 1.49848e-17
7141.99790 1.52056e-17
7144.00230 1.54612e-17
7145.99668 1.57048e-17
7148.00108 1.56438e-17
7149.99546 1.52771e-17
7151.99986 1.50442e-17
7154.00426 1.46735e-17
7155.99864 1.45587e-17
7158.00304 1.48798e-17
7159.99742 1.53153e-17
7162.00182 1.53876e-17
7163.99619 1.52728e-17
7166.00059 1.50712e-17
7168.00499 1.46167e-17
7169.99937 1.43114e-17
7172.00377 1.40526e-17
7173.99815 1.39891e-17
7176.00255 1.44209e-17
7177.99693 1.53510e-17
7180.00133 1.55910e-17
7181.99571 1.52339e-17
7184.00011 1.52075e-17
7186.00451 1.55215e-17
7187.99888 1.58000e-17
7190.00328 1.58186e-17
7191.99766 1.56910e-17
7194.00206 1.54374e-17
7195.99644 1.48725e-17
7198.00084 1.45755e-17
7199.99522 1.44140e-17
7201.99962 1.43856e-17
7204.00402 1.45439e-17
7205.99840 1.48364e-17
7208.00280 1.49834e-17
7209.99717 1.51848e-17
7212.00157 1.51090e-17
7213.99595 1.46124e-17
7216.00035 1.43481e-17
7218.00475 1.45387e-17
7219.99913 1.49369e-17
7222.00353 1.52008e-17
7223.99791 1.55477e-17
7226.00231 1.56269e-17
7227.99669 1.53271e-17
7230.00109 1.52767e-17
7231.99546 1.57636e-17
7233.99986 1.62359e-17
7236.00426 1.58451e-17
7237.99864 1.46382e-17
7240.00304 1.43305e-17
7241.99742 1.45929e-17
7244.00182 1.47756e-17
7245.99620 1.49948e-17
7248.00060 1.51347e-17
7249.99498 1.49491e-17
7251.99938 1.44673e-17
7254.00378 1.45180e-17
7255.99815 1.51587e-17
7258.00255 1.53460e-17
7259.99693 1.50282e-17
7262.00133 1.47670e-17
7263.99571 1.49829e-17
7266.00011 1.54637e-17
7268.00451 1.54288e-17
7269.99889 1.49810e-17
7272.00329 1.46696e-17
7273.99767 1.42541e-17
7276.00207 1.40133e-17
7277.99644 1.41263e-17
7280.00084 1.44430e-17
7281.99522 1.45760e-17
7283.99962 1.47828e-17
7286.00402 1.46672e-17
7287.99840 1.41243e-17
7290.00280 1.37668e-17
7291.99718 1.37715e-17
7294.00158 1.39280e-17
7295.99596 1.39861e-17
7298.00036 1.41116e-17
7300.00476 1.40116e-17
7301.99913 1.35847e-17
7304.00353 1.33873e-17
7305.99791 1.35622e-17
7308.00231 1.38049e-17
7309.99669 1.37426e-17
7312.00109 1.34665e-17
7313.99547 1.33777e-17
7315.99987 1.33520e-17
7318.00427 1.33769e-17
7319.99865 1.35281e-17
7322.00305 1.36411e-17
7323.99742 1.35482e-17
7326.00182 1.33150e-17
7327.99620 1.30942e-17
7330.00060 1.26432e-17
7331.99498 1.25692e-17
7333.99938 1.29739e-17
7336.00378 1.33316e-17
7337.99816 1.33238e-17
7340.00256 1.31246e-17
7341.99694 1.29678e-17
7344.00134 1.27186e-17
7345.99571 1.25513e-17
7348.00011 1.24353e-17
7350.00451 1.23352e-17
7351.99889 1.22034e-17
7354.00329 1.20927e-17
7355.99767 1.21967e-17
7358.00207 1.25718e-17
7359.99645 1.27633e-17
7362.00085 1.30271e-17
7363.99523 1.30286e-17
7365.99963 1.25924e-17
7368.00403 1.19810e-17
7369.99840 1.16499e-17
7372.00280 1.13544e-17
7373.99718 1.13871e-17
7376.00158 1.18930e-17
7377.99596 1.21815e-17
7380.00036 1.22258e-17
7382.00476 1.21370e-17
7383.99914 1.19333e-17
7386.00354 1.15448e-17
7387.99792 1.13825e-17
7390.00232 1.13886e-17
7391.99669 1.13341e-17
7394.00109 1.12506e-17
7395.99547 1.11324e-17
7397.99987 1.09551e-17
7400.00427 1.07271e-17
7401.99865 1.04959e-17
7404.00305 1.00836e-17
7405.99743 1.00068e-17
7408.00183 1.03347e-17
7409.99621 1.06397e-17
7412.00061 1.07024e-17
7414.00501 1.06467e-17
7415.99938 1.05108e-17
7418.00378 1.02444e-17
7419.99816 9.96954e-18
7422.00256 9.51310e-18
7423.99694 9.24879e-18
7426.00134 9.38469e-18
7427.99572 9.71182e-18
7430.00012 9.75820e-18
7432.00452 9.71675e-18
7433.99890 9.52741e-18
7436.00330 9.01208e-18
7437.99767 8.72243e-18
7440.00207 8.80887e-18
7441.99645 9.04529e-18
7444.00085 9.14613e-18
7445.99523 9.23405e-18
7447.99963 9.26959e-18
7450.00403 9.22995e-18
7451.99841 9.21882e-18
7454.00281 9.25918e-18
7455.99719 9.29127e-18
7458.00159 9.24933e-18
7459.99596 9.15203e-18
7462.00036 9.07314e-18
7464.00476 8.96272e-18
7465.99914 8.90098e-18
7468.00354 8.90813e-18
7469.99792 8.91150e-18
7472.00232 8.85536e-18
7473.99670 8.76547e-18
7476.00110 8.67196e-18
7477.99548 8.62195e-18
7479.99988 8.43113e-18
7482.00428 8.04754e-18
7483.99865 7.70000e-18
7486.00305 7.48440e-18
7487.99743 7.34778e-18
7490.00183 7.35420e-18
7491.99621 7.52079e-18
7494.00061 7.71388e-18
7495.99499 8.12796e-18
7497.99939 8.33954e-18
7500.00379 8.13384e-18
7501.99817 7.74356e-18
7504.00257 7.65141e-18
7505.99694 7.76153e-18
7508.00134 7.74002e-18
7509.99572 7.76026e-18
7512.00012 7.61669e-18
7514.00452 7.17892e-18
7515.99890 6.67560e-18
7518.00330 6.48243e-18
7519.99768 6.48720e-18
7522.00208 6.48361e-18
7523.99646 6.60379e-18
7526.00086 6.64717e-18
7527.99523 6.55233e-18
7529.99963 6.48003e-18
7532.00403 6.62278e-18
7533.99841 6.94556e-18
7536.00281 7.03250e-18
7537.99719 6.99170e-18
7540.00159 6.91038e-18
7541.99597 6.70838e-18
7544.00037 6.54182e-18
7546.00477 6.53515e-18
7547.99915 6.62831e-18
7550.00355 6.74557e-18
7551.99792 6.77121e-18
7554.00232 6.79685e-18
7555.99670 6.82248e-18
7558.00110 6.84811e-18
7559.99548 6.87374e-18
7561.99988 6.89937e-18
7564.00428 6.92499e-18
7565.99866 6.95060e-18
7568.00306 6.97622e-18
7569.99744 7.00183e-18
7572.00184 7.02744e-18
7573.99621 7.05304e-18
7576.00061 7.07864e-18
7577.99499 7.10424e-18
7579.99939 7.12983e-18
7582.00379 7.15542e-18
7583.99817 7.18101e-18
7586.00257 7.20660e-18
7587.99695 7.23218e-18
7590.00135 7.25776e-18
7591.99573 7.28333e-18
7594.00013 7.30890e-18
7596.00453 7.33447e-18
7597.99890 7.36004e-18
7600.00330 7.38560e-18
7601.99768 7.41116e-18
7604.00208 7.43671e-18
7605.99646 7.46226e-18
7608.00086 7.48781e-18
7609.99524 7.51336e-18
7611.99964 7.53890e-18
7614.00404 7.56444e-18
7615.99842 7.58998e-18
7618.00282 7.61551e-18
7619.99719 7.64104e-18
7622.00159 7.66656e-18
7623.99597 7.69209e-18
7626.00037 7.71761e-18
7628.00477 7.74312e-18
7629.99915 7.76863e-18
7632.00355 7.79414e-18
7633.99793 7.81965e-18
7636.00233 7.84515e-18
7637.99671 7.87065e-18
7640.00111 7.89615e-18
7641.99548 7.92164e-18
7643.99988 7.94713e-18
7646.00428 7.97262e-18
7647.99866 7.99810e-18
7650.00306 8.02358e-18
7651.99744 8.04906e-18
7654.00184 8.07454e-18
7655.99622 8.10001e-18
7658.00062 8.12547e-18
7660.00502 8.15094e-18
7661.99940 8.17640e-18
7664.00380 8.20185e-18
7665.99817 8.22731e-18
7668.00257 8.25276e-18
7669.99695 8.27821e-18
7672.00135 8.30365e-18
7673.99573 8.32909e-18
7676.00013 8.35453e-18
7678.00453 8.37997e-18
7679.99891 8.40540e-18
7682.00331 8.38147e-18
7683.99769 8.51253e-18
7686.00209 8.95005e-18
7687.99646 8.97455e-18
7690.00086 8.46179e-18
7691.99524 8.03103e-18
7693.99964 8.13347e-18
7696.00404 8.52810e-18
7697.99842 8.45379e-18
7700.00282 7.90989e-18
7701.99720 7.76960e-18
7704.00160 7.88434e-18
7705.99598 8.07565e-18
7708.00038 8.33499e-18
7710.00478 8.64295e-18
7711.99915 8.74641e-18
7714.00355 8.65251e-18
7715.99793 8.66236e-18
7718.00233 8.77531e-18
7719.99671 8.74468e-18
7722.00111 8.42140e-18
7723.99549 8.02517e-18
7725.99989 7.98339e-18
7728.00429 8.21455e-18
7729.99867 8.33575e-18
7732.00307 8.47325e-18
7733.99744 8.60365e-18
7736.00184 8.74459e-18
7737.99622 8.86273e-18
7740.00062 8.92269e-18
7741.99500 8.97904e-18
7743.99940 8.77957e-18
7746.00380 8.15988e-18
7747.99818 7.86966e-18
7750.00258 7.95895e-18
7751.99696 8.11169e-18
7754.00136 8.07099e-18
7755.99573 7.93624e-18
7758.00013 8.00448e-18
7760.00453 8.24063e-18
7761.99891 8.43909e-18
7764.00331 8.68273e-18
7765.99769 8.86668e-18
7768.00209 8.91110e-18
7769.99647 8.86231e-18
7772.00087 8.84472e-18
7773.99525 8.85906e-18
7775.99965 8.75826e-18
7778.00405 8.42200e-18
7779.99842 8.26882e-18
7782.00282 8.53842e-18
7783.99720 8.99720e-18
7786.00160 9.08898e-18
7787.99598 8.85658e-18
7790.00038 8.89666e-18
7792.00478 9.12360e-18
7793.99916 9.27640e-18
7796.00356 9.29972e-18
7797.99794 9.26831e-18
7800.00234 9.23490e-18
7801.99671 9.06905e-18
7804.00111 9.28220e-18
7805.99549 9.99593e-18
7807.99989 1.03837e-17
7810.00429 1.03013e-17
7811.99867 1.01287e-17
7814.00307 1.02869e-17
7815.99745 1.06939e-17
7818.00185 1.06425e-17
7819.99623 1.02212e-17
7822.00063 9.86227e-18
7823.99500 9.40981e-18
7825.99940 9.08628e-18
7828.00380 9.16251e-18
7829.99818 9.54400e-18
7832.00258 9.60281e-18
7833.99696 9.46829e-18
7836.00136 9.40673e-18
7837.99574 9.39395e-18
7840.00014 9.35196e-18
7842.00454 9.21211e-18
7843.99892 9.02209e-18
7846.00332 9.01117e-18
7847.99769 9.16903e-18
7850.00209 9.25884e-18
7851.99647 9.36721e-18
7854.00087 9.43388e-18
7855.99525 9.45671e-18
7857.99965 9.42787e-18
7860.00405 9.26909e-18
7861.99843 8.86352e-18
7864.00283 8.76420e-18
7865.99721 8.88531e-18
7868.00161 8.99752e-18
7869.99598 9.11276e-18
7872.00038 9.19888e-18
7874.00478 9.11596e-18
7875.99916 8.85425e-18
7878.00356 8.74303e-18
7879.99794 8.72801e-18
7882.00234 8.66410e-18
7883.99672 8.51606e-18
7886.00112 8.37794e-18
7887.99550 8.33822e-18
7889.99990 8.34874e-18
7892.00430 8.48002e-18
7893.99867 8.81094e-18
7896.00307 9.02540e-18
7897.99745 9.20419e-18
7900.00185 9.26980e-18
7901.99623 9.09654e-18
7904.00063 8.72720e-18
7906.00503 8.63164e-18
7907.99941 8.68644e-18
7910.00381 8.77225e-18
7911.99819 8.92659e-18
7914.00259 9.12111e-18
7915.99696 9.38843e-18
7918.00136 9.69327e-18
7919.99574 9.74630e-18
7922.00014 9.64848e-18
7924.00454 9.40993e-18
7925.99892 8.88459e-18
7928.00332 8.45936e-18
7929.99770 8.22819e-18
7932.00210 8.11468e-18
7933.99648 8.12031e-18
7936.00088 8.31720e-18
7937.99525 8.41880e-18
7939.99965 8.57826e-18
7942.00405 8.60700e-18
7943.99843 8.40842e-18
7946.00283 8.15791e-18
7947.99721 8.12780e-18
7950.00161 8.25403e-18
7951.99599 8.28399e-18
7954.00039 8.29128e-18
7956.00479 8.29428e-18
7957.99917 8.29306e-18
7960.00357 8.28424e-18
7961.99794 8.26424e-18
7964.00234 8.23202e-18
7965.99672 8.21076e-18
7968.00112 8.19010e-18
7969.99550 8.17854e-18
7971.99990 8.21495e-18
7974.00430 8.20390e-18
7975.99868 8.04409e-18
7978.00308 7.77980e-18
7979.99746 7.71360e-18
7982.00186 7.77753e-18
7983.99623 7.85380e-18
7986.00063 8.06665e-18
7987.99501 8.16788e-18
7989.99941 8.01357e-18
7992.00381 7.71106e-18
7993.99819 7.50248e-18
7996.00259 7.22151e-18
7997.99697 7.13267e-18
8000.00137 7.21801e-18
8001.99575 7.31607e-18
8004.00015 7.41425e-18
8006.00455 7.50979e-18
8007.99892 7.51584e-18
8010.00332 7.46553e-18
8011.99770 7.36070e-18
8014.00210 7.12466e-18
8015.99648 6.97685e-18
8018.00088 6.91589e-18
8019.99526 6.94033e-18
8021.99966 7.12300e-18
8024.00406 7.53444e-18
8025.99844 7.60023e-18
8028.00284 7.42726e-18
8029.99721 7.24438e-18
8032.00161 6.98643e-18
8033.99599 6.74574e-18
8036.00039 6.63823e-18
8037.99477 6.61561e-18
8039.99917 6.62699e-18
8042.00357 6.74615e-18
8043.99795 6.79389e-18
8046.00235 6.77854e-18
8047.99673 6.75668e-18
8050.00113 6.78057e-18
8051.99550 6.82393e-18
8053.99990 6.71110e-18
8056.00430 6.31977e-18
8057.99868 6.24998e-18
8060.00308 6.44363e-18
8061.99746 6.67169e-18
8064.00186 6.93511e-18
8065.99624 7.19352e-18
8068.00064 7.01307e-18
8070.00504 6.27840e-18
8071.99942 5.93604e-18
8074.00382 5.64444e-18
8075.99819 5.57066e-18
8078.00259 5.85845e-18
8079.99697 6.29442e-18
8082.00137 6.42359e-18
8083.99575 6.37276e-18
8086.00015 6.36333e-18
8088.00455 6.33802e-18
8089.99893 6.26520e-18
8092.00333 6.11020e-18
8093.99771 5.94277e-18
8096.00211 5.86558e-18
8097.99648 5.85375e-18
8100.00088 5.79262e-18
8101.99526 5.74486e-18
8103.99966 5.63141e-18
8106.00406 5.35521e-18
8107.99844 5.15254e-18
8110.00284 5.29970e-18
8111.99722 5.72427e-18
8114.00162 5.72545e-18
8115.99600 5.35114e-18
8118.00040 5.19258e-18
8120.00480 5.12979e-18
8121.99917 5.18071e-18
8124.00357 5.44694e-18
8125.99795 5.86735e-18
8128.00235 5.89574e-18
8129.99673 5.56677e-18
8132.00113 5.39761e-18
8133.99551 5.25305e-18
8135.99991 5.14157e-18
8138.00431 5.03766e-18
8139.99869 4.97642e-18
8142.00309 5.12191e-18
8143.99746 5.61037e-18
8146.00186 5.73700e-18
8147.99624 5.57307e-18
8150.00064 5.50729e-18
8151.99502 5.67012e-18
8153.99942 5.87569e-18
8156.00382 5.83906e-18
8157.99820 5.57730e-18
8160.00260 5.52824e-18
8161.99698 5.62643e-18
8164.00138 5.66545e-18
8165.99575 5.67392e-18
8168.00015 5.61270e-18
8170.00455 5.34679e-18
8171.99893 4.81566e-18
8174.00333 4.82033e-18
8175.99771 5.31372e-18
8178.00211 5.57148e-18
8179.99649 5.57081e-18
8182.00089 5.57014e-18
8183.99527 5.56947e-18
8185.99967 5.56877e-18
8188.00407 5.56810e-18
8189.99844 5.56743e-18
8192.00284 5.56676e-18
8193.99722 5.56606e-18
8196.00162 5.56539e-18
8197.99600 5.56472e-18
8200.00040 5.56406e-18
8202.00480 5.56339e-18
8203.99918 5.56269e-18
8206.00358 5.56202e-18
8207.99796 5.56135e-18
8210.00236 5.56068e-18
8211.99673 5.56002e-18
8214.00113 5.55932e-18
8215.99551 5.55865e-18
8217.99991 5.55798e-18
8220.00431 5.55732e-18
8221.99869 5.55662e-18
8224.00309 5.55595e-18
8225.99747 5.55528e-18
8228.00187 5.55462e-18
8229.99625 5.55395e-18
8232.00065 5.55325e-18
8233.99502 5.76435e-18
8235.99942 5.49887e-18
8238.00382 5.31167e-18
8239.99820 5.19918e-18
8242.00260 5.10692e-18
8243.99698 5.02496e-18
8246.00138 4.94723e-18
8247.99576 4.95191e-18
8250.00016 5.04646e-18
8252.00456 5.12932e-18
8253.99894 5.22023e-18
8256.00334 5.30745e-18
8257.99771 5.38115e-18
8260.00211 5.44822e-18
8261.99649 5.46866e-18
8264.00089 5.39443e-18
8265.99527 5.42392e-18
8267.99967 5.63183e-18
8270.00407 5.72281e-18
8271.99845 5.45632e-18
8274.00285 5.00492e-18
8275.99723 5.03433e-18
8278.00163 5.54713e-18
8279.99600 5.73931e-18
8282.00040 5.82740e-18
8284.00480 5.82768e-18
8285.99918 5.66546e-18
8288.00358 5.44926e-18
8289.99796 5.54466e-18
8292.00236 6.06312e-18
8293.99674 6.03575e-18
8296.00114 5.41211e-18
8297.99552 5.17064e-18
8299.99992 5.55688e-18
8302.00432 6.15156e-18
8303.99869 6.44158e-18
8306.00309 6.61163e-18
8307.99747 6.78785e-18
8310.00187 6.89144e-18
8311.99625 7.03914e-18
8314.00065 7.26390e-18
8316.00505 7.47681e-18
8317.99943 7.56944e-18
8320.00383 7.55740e-18
8321.99821 7.71628e-18
8324.00261 8.13111e-18
8325.99698 8.25529e-18
8328.00138 8.01924e-18
8329.99576 7.79022e-18
8332.00016 7.80228e-18
8334.00456 7.93652e-18
8335.99894 8.20449e-18
8338.00334 8.91692e-18
8339.99772 9.05396e-18
8342.00212 8.65406e-18
8343.99650 8.21091e-18
8346.00090 7.87908e-18
8347.99527 7.58044e-18
8349.99967 7.56104e-18
8352.00407 7.83774e-18
8353.99845 8.05482e-18
8356.00285 8.30068e-18
8357.99723 8.61265e-18
8360.00163 9.07940e-18
8361.99601 9.57212e-18
8364.00041 9.73486e-18
8365.99479 9.57147e-18
8367.99919 9.61993e-18
8370.00359 9.72490e-18
8371.99796 9.86131e-18
8374.00236 1.00866e-17
8375.99674 1.02928e-17
8378.00114 1.02755e-17
8379.99552 1.00439e-17
8381.99992 1.00138e-17
8384.00432 1.00649e-17
8385.99870 1.01627e-17
8388.00310 1.03739e-17
8389.99748 1.05610e-17
8392.00188 1.05613e-17
8393.99625 1.04273e-17
8396.00065 1.03672e-17
8397.99503 1.02960e-17
8399.99943 1.02646e-17
8402.00383 1.02350e-17
8403.99821 1.02772e-17
8406.00261 1.04513e-17
8407.99699 1.07274e-17
8410.00139 1.10009e-17
8411.99577 1.14364e-17
8414.00017 1.16146e-17
8416.00457 1.15787e-17
8417.99894 1.14761e-17
8420.00334 1.13098e-17
8421.99772 1.11011e-17
8424.00212 1.11238e-17
8425.99650 1.13488e-17
8428.00090 1.15351e-17
8430.00530 1.18394e-17
8431.99968 1.20266e-17
8434.00408 1.20155e-17
8435.99846 1.19058e-17
8438.00286 1.18388e-17
8439.99723 1.16991e-17
8442.00163 1.17428e-17
8443.99601 1.18933e-17
8446.00041 1.21448e-17
8448.00481 1.25812e-17
8449.99919 1.30405e-17
8452.00359 1.32859e-17
8453.99797 1.34423e-17
8456.00237 1.33596e-17
8457.99675 1.28567e-17
8460.00115 1.26288e-17
8461.99552 1.26458e-17
8463.99992 1.28068e-17
8466.00432 1.31129e-17
8467.99870 1.36041e-17
8470.00310 1.38219e-17
8471.99748 1.37586e-17
8474.00188 1.39216e-17
8475.99626 1.43690e-17
8478.00066 1.47314e-17
8479.99504 1.47622e-17
8481.99944 1.45951e-17
8484.00384 1.45529e-17
8485.99821 1.44605e-17
8488.00261 1.45225e-17
8489.99699 1.48163e-17
8492.00139 1.50053e-17
8493.99577 1.49120e-17
8496.00017 1.46905e-17
8498.00457 1.46776e-17
8499.99895 1.47951e-17
8502.00335 1.48806e-17
8503.99773 1.50314e-17
8506.00213 1.51116e-17
8507.99650 1.50085e-17
8510.00090 1.48954e-17
8511.99528 1.51422e-17
8513.99968 1.57776e-17
8516.00408 1.60210e-17
8517.99846 1.61019e-17
8520.00286 1.60553e-17
8521.99724 1.57680e-17
8524.00164 1.54631e-17
8525.99602 1.54744e-17
8528.00042 1.57093e-17
8530.00482 1.58417e-17
8531.99919 1.59370e-17
8534.00359 1.61160e-17
8535.99797 1.64922e-17
8538.00237 1.67762e-17
8539.99675 1.66556e-17
8542.00115 1.62283e-17
8543.99553 1.61975e-17
8545.99993 1.65233e-17
8548.00433 1.65803e-17
8549.99871 1.63277e-17
8552.00311 1.61713e-17
8553.99748 1.63384e-17
8556.00188 1.66989e-17
8557.99626 1.70835e-17
8560.00066 1.77725e-17
8562.00506 1.80360e-17
8563.99944 1.79626e-17
8566.00384 1.78232e-17
8567.99822 1.76703e-17
8570.00262 1.74819e-17
8571.99700 1.73877e-17
8574.00140 1.73556e-17
8575.99577 1.73257e-17
8578.00017 1.74160e-17
8580.00457 1.73460e-17
8581.99895 1.69411e-17
8584.00335 1.64832e-17
8585.99773 1.64843e-17
8588.00213 1.68500e-17
8589.99651 1.70594e-17
8592.00091 1.74565e-17
8593.99529 1.75053e-17
8595.99969 1.70098e-17
8598.00409 1.64311e-17
8599.99846 1.63058e-17
8602.00286 1.64540e-17
8603.99724 1.64915e-17
8606.00164 1.65719e-17
8607.99602 1.66055e-17
8610.00042 1.65960e-17
8611.99480 1.65632e-17
8613.99920 1.65001e-17
8616.00360 1.64010e-17
8617.99798 1.64296e-17
8620.00238 1.67193e-17
8621.99675 1.66644e-17
8624.00115 1.62223e-17
8625.99553 1.58186e-17
8627.99993 1.56977e-17
8630.00433 1.57061e-17
8631.99871 1.55310e-17
8634.00311 1.50732e-17
8635.99749 1.50346e-17
8638.00189 1.54007e-17
8639.99627 1.56979e-17
8642.00067 1.57714e-17
8643.99504 1.57581e-17
8645.99944 1.58014e-17
8648.00384 1.59190e-17
8649.99822 1.58369e-17
8652.00262 1.54235e-17
8653.99700 1.52863e-17
8656.00140 1.56915e-17
8657.99578 1.61864e-17
8660.00018 1.60570e-17
8662.00458 1.54575e-17
8663.99896 1.50670e-17
8666.00336 1.44664e-17
8667.99773 1.42684e-17
8670.00213 1.46747e-17
8671.99651 1.51712e-17
8674.00091 1.52137e-17
8676.00531 1.50128e-17
8677.99969 1.48136e-17
8680.00409 1.44937e-17
8681.99847 1.41843e-17
8684.00287 1.38127e-17
8685.99725 1.35019e-17
8688.00165 1.33865e-17
8689.99602 1.34124e-17
8692.00042 1.32406e-17
8694.00482 1.26560e-17
8695.99920 1.27280e-17
8698.00360 1.36244e-17
8699.99798 1.43160e-17
8702.00238 1.42539e-17
8703.99676 1.38070e-17
8706.00116 1.36464e-17
8707.99554 1.35141e-17
8709.99994 1.34657e-17
8712.00434 1.36097e-17
8713.99871 1.36099e-17
8716.00311 1.32913e-17
8717.99749 1.28608e-17
8720.00189 1.27509e-17
8721.99627 1.29389e-17
8724.00067 1.28581e-17
8725.99505 1.25489e-17
8727.99945 1.23887e-17
8730.00385 1.24707e-17
8731.99823 1.26254e-17
8734.00263 1.26366e-17
8735.99700 1.25408e-17
8738.00140 1.26198e-17
8739.99578 1.28569e-17
8742.00018 1.30352e-17
8744.00458 1.31475e-17
8745.99896 1.32499e-17
8748.00336 1.34134e-17
8749.99774 1.36494e-17
8752.00214 1.35632e-17
8753.99652 1.31570e-17
8756.00092 1.28315e-17
8757.99529 1.24068e-17
8759.99969 1.21514e-17
8762.00409 1.23892e-17
8763.99847 1.29761e-17
8766.00287 1.28586e-17
8767.99725 1.21181e-17
8770.00165 1.16719e-17
8771.99603 1.12578e-17
8774.00043 1.09966e-17
8776.00483 1.10180e-17
8777.99921 1.12089e-17
8780.00361 1.11585e-17
8781.99798 1.08101e-17
8784.00238 1.08594e-17
8785.99676 1.12539e-17
8788.00116 1.15789e-17
8789.99554 1.17410e-17
8791.99994 1.18302e-17
8794.00434 1.18858e-17
8795.99872 1.18754e-17
8798.00312 1.18703e-17
8799.99750 1.18772e-17
8802.00190 1.18136e-17
8803.99627 1.16549e-17
8806.00067 1.14502e-17
8808.00507 1.12559e-17
8809.99945 1.10334e-17
8812.00385 1.08689e-17
8813.99823 1.06741e-17
8816.00263 1.06327e-17
8817.99701 1.08644e-17
8820.00141 1.10657e-17
8821.99579 1.09032e-17
8824.00019 1.04754e-17
8825.99456 1.03653e-17
8827.99896 1.04389e-17
8830.00336 1.05080e-17
8831.99774 1.06211e-17
8834.00214 1.07428e-17
8835.99652 1.08617e-17
8838.00092 1.09842e-17
8839.99530 1.09895e-17
8841.99970 1.09625e-17
8844.00410 1.07624e-17
8845.99848 1.02915e-17
8848.00288 9.89407e-18
8849.99725 9.68694e-18
8852.00165 9.59569e-18
8853.99603 9.64890e-18
8856.00043 1.00065e-17
8857.99481 1.00767e-17
8859.99921 9.87814e-18
8862.00361 9.84555e-18
8863.99799 1.01476e-17
8866.00239 1.05569e-17
8867.99677 1.07100e-17
8870.00117 1.07634e-17
8871.99554 1.06551e-17
8873.99994 1.01647e-17
8876.00434 9.98990e-18
8877.99872 1.02568e-17
8880.00312 1.06745e-17
8881.99750 1.09621e-17
8884.00190 1.12835e-17
8885.99628 1.13596e-17
8888.00068 1.12172e-17
8890.00508 1.10477e-17
8891.99946 1.07901e-17
8894.00386 1.05301e-17
8895.99823 1.03843e-17
8898.00263 1.03190e-17
8899.99701 1.00627e-17
8902.00141 9.57963e-18
8903.99579 9.27209e-18
8906.00019 9.05818e-18
8908.00459 8.94835e-18
8909.99897 9.02840e-18
8912.00337 9.24424e-18
8913.99775 9.09972e-18
8916.00215 8.61203e-18
8917.99652 8.29973e-18
8920.00092 7.92657e-18
8922.00532 7.76337e-18
8923.99970 7.96490e-18
8926.00410 8.38569e-18
8927.99848 8.69737e-18
8930.00288 9.13441e-18
8931.99726 9.29164e-18
8934.00166 9.16120e-18
8935.99604 9.10387e-18
8938.00044 9.21224e-18
8940.00484 9.35878e-18
8941.99921 9.38971e-18
8944.00361 9.34706e-18
8945.99799 9.31878e-18
8948.00239 9.21528e-18
8949.99677 9.21958e-18
8952.00117 9.43278e-18
8953.99555 9.63257e-18
8955.99995 9.51428e-18
8958.00435 9.12102e-18
8959.99873 9.06168e-18
8962.00313 9.17767e-18
8963.99750 9.35153e-18
8966.00190 9.83853e-18
8967.99628 1.00928e-17
8970.00068 9.50760e-18
8971.99506 8.28579e-18
8973.99946 7.87212e-18
8976.00386 7.90910e-18
8977.99824 7.97959e-18
8980.00264 8.36507e-18
8981.99702 8.57874e-18
8984.00142 8.22521e-18
8985.99579 7.55942e-18
8988.00019 7.51504e-18
8990.00459 8.03697e-18
8991.99897 8.20786e-18
8994.00337 8.23602e-18
8995.99775 8.22187e-18
8998.00215 8.13188e-18
8999.99653 8.02740e-18
9002.00093 8.19012e-18
9003.99531 8.55039e-18
9005.99971 8.97269e-18
9008.00411 9.79412e-18
9009.99848 1.01787e-17
9012.00288 9.82942e-18
9013.99726 9.22663e-18
9016.00166 9.08045e-18
9017.99604 9.18710e-18
9020.00044 9.14324e-18
9022.00484 9.14728e-18
9023.99922 8.98504e-18
9026.00362 8.53114e-18
9027.99800 8.07444e-18
9030.00240 7.98318e-18
9031.99677 8.18156e-18
9034.00117 8.01155e-18
9035.99555 7.51279e-18
9037.99995 7.22644e-18
9040.00435 7.07640e-18
9041.99873 7.05458e-18
9044.00313 7.21856e-18
9045.99751 7.55499e-18
9048.00191 7.73238e-18
9049.99629 7.77324e-18
9052.00069 7.96883e-18
9053.99506 8.36541e-18
9055.99946 8.68635e-18
9058.00386 8.80242e-18
9059.99824 8.79207e-18
9062.00264 8.69776e-18
9063.99702 8.26715e-18
9066.00142 8.29325e-18
9067.99580 8.86455e-18
9070.00020 9.14648e-18
9071.99458 8.80815e-18
9073.99898 8.19434e-18
9076.00338 7.86625e-18
9077.99775 7.58085e-18
9080.00215 7.45377e-18
9081.99653 7.51476e-18
9084.00093 7.57909e-18
9085.99531 7.59345e-18
9087.99971 7.65143e-18
9090.00411 7.91644e-18
9091.99849 8.50228e-18
9094.00289 8.46379e-18
9095.99727 7.66988e-18
9098.00167 7.40246e-18
9099.99604 7.84398e-18
9102.00044 8.38699e-18
9103.99482 8.45051e-18
9105.99922 8.22763e-18
9108.00362 8.29951e-18
9109.99800 8.61199e-18
9112.00240 8.73864e-18
9113.99678 8.65287e-18
9116.00118 8.57942e-18
9117.99556 8.68169e-18
9119.99996 8.88261e-18
9122.00436 8.97008e-18
9123.99873 9.07417e-18
9126.00313 9.00940e-18
9127.99751 8.62780e-18
9130.00191 8.41649e-18
9131.99629 8.65646e-18
9134.00069 9.14145e-18
9136.00509 9.39635e-18
9137.99947 9.49642e-18
9140.00387 9.76741e-18
9141.99825 1.03660e-17
9144.00265 1.06085e-17
9145.99702 1.01711e-17
9148.00142 9.45067e-18
9149.99580 9.19568e-18
9152.00020 9.11434e-18
9154.00460 9.22153e-18
9155.99898 9.71220e-18
9158.00338 1.00125e-17
9159.99776 1.00825e-17
9162.00216 1.00041e-17
9163.99654 9.75528e-18
9166.00094 9.22964e-18
9168.00534 9.07477e-18
9169.99971 9.11499e-18
9172.00411 9.26030e-18
9173.99849 9.60355e-18
9176.00289 9.96197e-18
9177.99727 1.01359e-17
9180.00167 1.02092e-17
9181.99605 1.02574e-17
9184.00045 1.02147e-17
9185.99483 1.02091e-17
9187.99923 1.03235e-17
9190.00363 1.03056e-17
9191.99800 9.84957e-18
9194.00240 9.10273e-18
9195.99678 9.23595e-18
9198.00118 1.04497e-17
9199.99556 1.07619e-17
9201.99996 1.02336e-17
9204.00436 9.94564e-18
9205.99874 1.05248e-17
9208.00314 1.14492e-17
9209.99752 1.13911e-17
9212.00192 1.03660e-17
9213.99629 9.98331e-18
9216.00069 9.74245e-18
9217.99507 9.70816e-18
9219.99947 1.00253e-17
9222.00387 1.04694e-17
9223.99825 1.05044e-17
9226.00265 1.02823e-17
9227.99703 1.00476e-17
9230.00143 9.52196e-18
9231.99581 9.29499e-18
9234.00021 9.58559e-18
9236.00461 9.94009e-18
9237.99898 9.71063e-18
9240.00338 8.93356e-18
9241.99776 9.04550e-18
9244.00216 1.00546e-17
9245.99654 1.05398e-17
9248.00094 1.05186e-17
9249.99532 1.03049e-17
9251.99972 1.00437e-17
9254.00412 9.63120e-18
9255.99850 9.48859e-18
9258.00290 9.72129e-18
9259.99727 9.55015e-18
9262.00167 8.90502e-18
9263.99605 8.31313e-18
9266.00045 8.07300e-18
9268.00485 8.02233e-18
9269.99923 8.05069e-18
9272.00363 8.42971e-18
9273.99801 8.39271e-18
9276.00241 7.95410e-18
9277.99679 7.58416e-18
9280.00119 7.45923e-18
9281.99556 7.44599e-18
9283.99996 7.41866e-18
9286.00436 7.40623e-18
9287.99874 7.47077e-18
9290.00314 7.56599e-18
9291.99752 7.76914e-18
9294.00192 8.16222e-18
9295.99630 8.61525e-18
9298.00070 8.85121e-18
9299.99508 8.88335e-18
9301.99948 9.14611e-18
9304.00388 9.60031e-18
9305.99825 9.96656e-18
9308.00265 1.04925e-17
9309.99703 1.07052e-17
9312.00143 9.73788e-18
9313.99581 7.53008e-18
9316.00021 6.94341e-18
9317.99459 7.70765e-18
9319.99899 7.82581e-18
9322.00339 7.16284e-18
9323.99777 6.59643e-18
9326.00217 6.93209e-18
9327.99654 7.91043e-18
9330.00094 7.70895e-18
9331.99532 6.01610e-18
9333.99972 5.78256e-18
9336.00412 6.83393e-18
9337.99850 8.13870e-18
9340.00290 9.37034e-18
9341.99728 1.06858e-17
9344.00168 1.10512e-17
9345.99606 1.07095e-17
9348.00046 1.00664e-17
9349.99483 8.44505e-18
9351.99923 7.35701e-18
9354.00363 7.36279e-18
9355.99801 7.99112e-18
9358.00241 8.72325e-18
9359.99679 1.02860e-17
9362.00119 1.07154e-17
9363.99557 1.05722e-17
9365.99997 9.93916e-18
9368.00437 8.58904e-18
9369.99875 6.92302e-18
9372.00315 5.77272e-18
9373.99752 4.75734e-18
9376.00192 4.10495e-18
9377.99630 3.35642e-18
9380.00070 3.65776e-18
9382.00510 5.70269e-18
9383.99948 7.92946e-18
9386.00388 8.45834e-18
9387.99826 7.93848e-18
9390.00266 7.62599e-18
9391.99704 6.77817e-18
9394.00144 6.42879e-18
9395.99581 6.62599e-18
9398.00021 6.92245e-18
9400.00461 6.92844e-18
9401.99899 6.78917e-18
9404.00339 7.37664e-18
9405.99777 9.30489e-18
9408.00217 9.64977e-18
9409.99655 8.40835e-18
9412.00095 7.14936e-18
9413.99533 6.55219e-18
9415.99973 6.22756e-18
9418.00413 6.30177e-18
9419.99850 7.29754e-18
9422.00290 7.32085e-18
9423.99728 6.32886e-18
9426.00168 5.83213e-18
9427.99606 6.56188e-18
9430.00046 7.73541e-18
9431.99484 7.76381e-18
9433.99924 6.85289e-18
9436.00364 6.52120e-18
9437.99802 6.06403e-18
9440.00242 6.17783e-18
9441.99679 7.30609e-18
9444.00119 8.67216e-18
9445.99557 8.98887e-18
9447.99997 8.60520e-18
9450.00437 8.40683e-18
9451.99875 8.08662e-18
9454.00315 7.73071e-18
9455.99753 7.41517e-18
9458.00193 6.96649e-18
9459.99631 6.03072e-18
9462.00071 4.50019e-18
9463.99508 4.54400e-18
9465.99948 6.23118e-18
9468.00388 7.13832e-18
9469.99826 7.46875e-18
9472.00266 7.62853e-18
9473.99704 7.85595e-18
9476.00144 8.04766e-18
9477.99582 7.73961e-18
9480.00022 6.57049e-18
9482.00462 6.22374e-18
9483.99900 6.41396e-18
9486.00340 6.90362e-18
9487.99777 7.82283e-18
9490.00217 9.01426e-18
9491.99655 9.21451e-18
9494.00095 8.39622e-18
9495.99533 8.18069e-18
9497.99973 8.37397e-18
9500.00413 8.24833e-18
9501.99851 7.49932e-18
9504.00291 6.47338e-18
9505.99729 5.76690e-18
9508.00169 5.01897e-18
9509.99606 4.76077e-18
9512.00046 4.84707e-18
9514.00486 5.23037e-18
9515.99924 6.01097e-18
9518.00364 7.00147e-18
9519.99802 7.92617e-18
9522.00242 9.08728e-18
9523.99680 9.45884e-18
9526.00120 9.14065e-18
9527.99558 8.80862e-18
9529.99998 8.25283e-18
9532.00438 7.79395e-18
9533.99875 7.93617e-18
9536.00315 8.58418e-18
9537.99753 8.49176e-18
9540.00193 7.88513e-18
9541.99631 7.34396e-18
9544.00071 6.50157e-18
9545.99509 5.99811e-18
9547.99949 6.47090e-18
9550.00389 7.61856e-18
9551.99827 7.87215e-18
9554.00267 7.69603e-18
9555.99704 7.34370e-18
9558.00144 6.40255e-18
9559.99582 5.78068e-18
9562.00022 5.97414e-18
9563.99460 6.60505e-18
9565.99900 6.88537e-18
9568.00340 7.13560e-18
9569.99778 7.24256e-18
9572.00218 7.16704e-18
9573.99656 7.10834e-18
9576.00096 7.16713e-18
9577.99533 7.21105e-18
9579.99973 6.96689e-18
9582.00413 6.32747e-18
9583.99851 6.18858e-18
9586.00291 6.42631e-18
9587.99729 6.60455e-18
9590.00169 6.64474e-18
9591.99607 6.71207e-18
9594.00047 7.00820e-18
9596.00487 7.54868e-18
9597.99925 7.74634e-18
9600.00365 7.66287e-18
9601.99802 7.67854e-18
9604.00242 7.82011e-18
9605.99680 7.94031e-18
9608.00120 7.92637e-18
9609.99558 7.82873e-18
9611.99998 7.66754e-18
9614.00438 7.19425e-18
9615.99876 7.17263e-18
9618.00316 7.68114e-18
9619.99754 8.19258e-18
9622.00194 8.47713e-18
9623.99631 8.65786e-18
9626.00071 8.25916e-18
9628.00511 6.85935e-18
9629.99949 6.38636e-18
9632.00389 6.55195e-18
9633.99827 6.85958e-18
9636.00267 7.22153e-18
9637.99705 7.65837e-18
9640.00145 7.78951e-18
9641.99583 7.77182e-18
9644.00023 7.54686e-18
9646.00463 7.01728e-18
9647.99900 6.50104e-18
9650.00340 5.89782e-18
9651.99778 5.40623e-18
9654.00218 5.68145e-18
9655.99656 6.96669e-18
9658.00096 7.04830e-18
9659.99534 6.25254e-18
9661.99974 5.62228e-18
9664.00414 5.08777e-18
9665.99852 4.71670e-18
9668.00292 4.82539e-18
9669.99729 5.40510e-18
9672.00169 5.65125e-18
9673.99607 5.81100e-18
9676.00047 5.91887e-18
9677.99485 5.86159e-18
9679.99925 5.88393e-18
9682.00365 6.29180e-18
9683.99803 7.00788e-18
9686.00243 7.13815e-18
9687.99681 6.84701e-18
9690.00121 6.56540e-18
9691.99558 6.06979e-18
9693.99998 5.70255e-18
9696.00438 5.74393e-18
9697.99876 6.02898e-18
9700.00316 5.97770e-18
9701.99754 5.61762e-18
9704.00194 5.53219e-18
9705.99632 5.59807e-18
9708.00072 5.74126e-18
9709.99510 6.02088e-18
9711.99950 6.34901e-18
9714.00390 6.32558e-18
9715.99827 5.96743e-18
9718.00267 5.75405e-18
9719.99705 5.41718e-18
9722.00145 5.30561e-18
9723.99583 5.56266e-18
9726.00023 5.96963e-18
9728.00463 6.18831e-18
9729.99901 6.40118e-18
9732.00341 6.38519e-18
9733.99779 5.98124e-18
9736.00219 5.86205e-18
9737.99656 6.17423e-18
9740.00096 6.54966e-18
9741.99534 6.59954e-18
9743.99974 6.47304e-18
9746.00414 6.30617e-18
9747.99852 5.95127e-18
9750.00292 5.72730e-18
9751.99730 5.59676e-18
9754.00170 5.54650e-18
9755.99608 5.56513e-18
9758.00048 5.64750e-18
9760.00488 5.97381e-18
9761.99925 6.84581e-18
9764.00365 7.10141e-18
9765.99803 6.76399e-18
9768.00243 6.37786e-18
9769.99681 6.14821e-18
9772.00121 5.96790e-18
9773.99559 6.12017e-18
9775.99999 6.67515e-18
9778.00439 7.06459e-18
9779.99877 7.56484e-18
9782.00317 7.84811e-18
9783.99754 7.78218e-18
9786.00194 7.49157e-18
9787.99632 7.16570e-18
9790.00072 6.73085e-18
9791.99510 6.19614e-18
9793.99950 5.37883e-18
9796.00390 4.78788e-18
9797.99828 4.43772e-18
9800.00268 4.32692e-18
9801.99706 4.64397e-18
9804.00146 5.54524e-18
9805.99583 5.87789e-18
9808.00023 5.97971e-18
9809.99461 5.92016e-18
9811.99901 5.61766e-18
9814.00341 5.23241e-18
9815.99779 4.95120e-18
9818.00219 4.67237e-18
9819.99657 4.54532e-18
9822.00097 4.60036e-18
9823.99535 4.59242e-18
9825.99975 4.38127e-18
9828.00415 4.37864e-18
9829.99852 5.01341e-18
9832.00292 6.12263e-18
9833.99730 6.51704e-18
9836.00170 6.46341e-18
9837.99608 6.41036e-18
9840.00048 6.13820e-18
9842.00488 5.95264e-18
9843.99926 6.07709e-18
9846.00366 6.35196e-18
9847.99804 6.28980e-18
9850.00244 5.80072e-18
9851.99681 5.77183e-18
9854.00121 6.10128e-18
9855.99559 6.39108e-18
9857.99999 6.52007e-18
9860.00439 6.60339e-18
9861.99877 6.77300e-18
9864.00317 7.17147e-18
9865.99755 7.03924e-18
9868.00195 6.34880e-18
9869.99633 5.83728e-18
9872.00073 5.52822e-18
9874.00513 5.38962e-18
9875.99950 5.53424e-18
9878.00390 5.87807e-18
9879.99828 6.62106e-18
9882.00268 8.38670e-18
9883.99706 9.11905e-18
9886.00146 8.63004e-18
9887.99584 7.68873e-18
9890.00024 6.84556e-18
9892.00464 5.74786e-18
9893.99902 5.32005e-18
9896.00342 5.43015e-18
9897.99779 5.54056e-18
9900.00219 5.82950e-18
9901.99657 6.08336e-18
9904.00097 6.10882e-18
9905.99535 5.99929e-18
9907.99975 5.97521e-18
9910.00415 6.04763e-18
9911.99853 5.93394e-18
9914.00293 5.67582e-18
9915.99731 5.33459e-18
9918.00171 4.84209e-18
9919.99608 4.27885e-18
9922.00048 4.16506e-18
9923.99486 4.26658e-18
9925.99926 4.73656e-18
9928.00366 5.87593e-18
9929.99804 6.74093e-18
9932.00244 7.13518e-18
9933.99682 7.23047e-18
9936.00122 6.99958e-18
9937.99560 6.18603e-18
9940.00000 5.89057e-18
9942.00440 5.89952e-18
9943.99877 5.85860e-18
9946.00317 5.64097e-18
9947.99755 5.49439e-18
9950.00195 5.80091e-18
9951.99633 6.60357e-18
9954.00073 6.75298e-18
9955.99511 6.36311e-18
9957.99951 6.19308e-18
9960.00391 6.37858e-18
9961.99829 6.45904e-18
9964.00269 5.90672e-18
9965.99706 4.81317e-18
9968.00146 4.71891e-18
9969.99584 5.50482e-18
9972.00024 5.93800e-18
9974.00464 6.23379e-18
9975.99902 6.39953e-18
9978.00342 6.33877e-18
9979.99780 6.09870e-18
9982.00220 6.15043e-18
9983.99658 6.49811e-18
9986.00098 6.59256e-18
9987.99535 6.41713e-18
9989.99975 6.36234e-18
9992.00415 6.71085e-18
9993.99853 7.20618e-18
9996.00293 7.06014e-18
9997.99731 6.25042e-18
10000.00171 5.84954e-18
