# wavelength flux
3549.99702 2.55900e-18
3555.00452 2.49178e-18
3560.00201 2.49433e-18
3564.99949 2.45935e-18
3569.99698 2.48389e-18
3575.00448 2.33492e-18
3580.00196 2.31435e-18
3584.99945 2.32497e-18
3589.99693 2.22494e-18
3595.00443 2.28602e-18
3600.00192 2.29407e-18
3604.99940 2.23411e-18
3609.99689 2.27312e-18
3615.00439 2.09145e-18
3620.00187 2.15856e-18
3624.99936 2.38607e-18
3629.99684 2.16620e-18
3635.00434 2.39515e-18
3640.00183 2.27033e-18
3644.99931 2.44394e-18
3649.99680 2.42171e-18
3655.00430 2.40957e-18
3660.00178 2.49170e-18
3664.99927 2.57486e-18
3669.99675 2.80165e-18
3675.00425 2.91909e-18
3680.00173 3.20047e-18
3684.99922 3.23595e-18
3689.99671 3.27086e-18
3695.00421 3.51846e-18
3700.00169 3.77430e-18
3704.99917 3.75129e-18
3709.99666 3.81501e-18
3715.00416 3.75427e-18
3720.00164 3.84638e-18
3724.99913 3.77850e-18
3729.99662 3.86834e-18
3735.00412 3.82299e-18
3740.00160 3.52200e-18
3744.99908 3.36266e-18
3749.99657 3.04474e-18
3755.00407 2.91106e-18
3760.00156 2.61812e-18
3764.99904 2.34093e-18
3769.99653 2.13474e-18
3775.00403 1.86707e-18
3780.00151 1.80031e-18
3784.99899 1.75187e-18
3789.99648 1.66994e-18
3795.00398 1.58534e-18
3800.00147 1.50936e-18
3804.99895 1.47408e-18
3809.99644 1.46457e-18
3815.00394 1.53333e-18
3820.00142 1.60593e-18
3824.99891 1.72059e-18
3829.99639 1.79729e-18
3835.00389 1.86307e-18
3840.00138 2.09279e-18
3844.99886 2.09711e-18
3849.99635 2.29427e-18
3855.00385 2.60691e-18
3860.00133 2.79774e-18
3864.99882 3.09819e-18
3869.99630 3.48913e-18
3875.00380 3.93873e-18
3880.00129 4.23418e-18
3884.99877 4.60205e-18
3889.99626 4.97191e-18
3895.00376 5.47255e-18
3900.00124 5.96886e-18
3904.99873 6.41665e-18
3909.99621 6.96753e-18
3915.00371 7.40024e-18
3920.00120 7.80090e-18
3924.99868 8.27183e-18
3929.99617 8.36321e-18
3935.00367 8.63639e-18
3940.00115 8.75534e-18
3944.99864 9.18350e-18
3949.99612 9.30345e-18
3955.00362 9.54289e-18
3960.00111 9.82264e-18
3964.99859 1.01315e-17
3969.99608 1.04715e-17
3975.00358 1.06225e-17
3980.00106 1.09253e-17
3984.99855 1.12842e-17
3989.99603 1.16843e-17
3995.00353 1.21932e-17
4000.00102 1.27042e-17
4004.99850 1.32444e-17
4009.99599 1.34746e-17
4015.00349 1.36260e-17
4020.00097 1.36365e-17
4024.99845 1.38358e-17
4029.99594 1.42125e-17
4035.00344 1.43386e-17
4040.00092 1.44010e-17
4044.99841 1.44011e-17
4049.99590 1.40469e-17
4055.00340 1.37274e-17
4060.00088 1.31685e-17
4064.99836 1.27384e-17
4069.99585 1.20216e-17
4075.00335 1.15574e-17
4080.00084 1.10208e-17
4084.99832 1.04061e-17
4089.99581 9.90951e-18
4095.00331 9.37660e-18
4100.00079 8.91873e-18
4104.99828 8.63677e-18
4109.99576 8.29108e-18
4115.00326 8.02140e-18
4120.00075 7.70862e-18
4124.99823 7.69639e-18
4129.99572 7.47061e-18
4135.00322 7.27548e-18
4140.00070 7.12397e-18
4144.99819 6.90634e-18
4149.99567 6.72891e-18
4155.00317 6.59048e-18
4160.00066 6.38192e-18
4164.99814 6.06776e-18
4169.99563 6.00245e-18
4175.00313 5.73076e-18
4180.00061 5.58870e-18
4184.99809 5.73327e-18
4189.99558 5.66610e-18
4195.00308 5.66087e-18
4200.00057 5.62133e-18
4204.99805 5.59224e-18
4209.99554 5.59131e-18
4215.00303 5.53517e-18
4220.00052 5.44545e-18
4224.99801 5.59270e-18
4229.99549 5.67025e-18
4235.00299 5.72672e-18
4240.00047 5.89040e-18
4244.99796 5.91987e-18
4249.99545 6.08262e-18
4255.00295 6.09334e-18
4260.00043 6.36738e-18
4264.99791 6.44346e-18
4269.99540 6.74599e-18
4275.00290 6.83931e-18
4280.00039 7.04181e-18
4284.99787 7.13325e-18
4289.99536 7.10273e-18
4295.00285 7.08495e-18
4300.00034 7.14444e-18
4304.99783 7.08167e-18
4309.99531 7.18180e-18
4315.00281 7.14849e-18
4320.00029 7.24060e-18
4324.99778 7.31087e-18
4329.99527 7.28483e-18
4335.00277 7.29884e-18
4340.00025 7.27989e-18
4344.99773 7.31306e-18
4349.99522 7.25313e-18
4355.00272 6.91858e-18
4360.00021 6.75579e-18
4364.99769 6.67277e-18
4369.99518 6.67996e-18
4375.00267 6.60039e-18
4380.00016 6.61851e-18
4384.99765 6.61729e-18
4389.99513 6.59791e-18
4395.00263 6.58312e-18
4400.00011 6.56406e-18
4404.99760 6.60802e-18
4410.00510 6.47533e-18
4415.00259 6.48880e-18
4420.00007 6.38814e-18
4424.99755 6.33808e-18
4429.99504 6.22290e-18
4435.00254 6.29810e-18
4440.00003 6.21552e-18
4444.99751 6.12939e-18
4449.99500 6.11477e-18
4455.00249 6.11765e-18
4459.99998 6.07569e-18
4464.99747 6.14071e-18
4470.00497 6.29091e-18
4475.00245 6.33196e-18
4479.99993 6.49987e-18
4484.99742 6.68106e-18
4489.99491 6.78217e-18
4495.00241 7.02266e-18
4499.99989 7.38542e-18
4504.99737 7.60543e-18
4510.00488 8.00863e-18
4515.00236 8.52219e-18
4519.99984 8.81027e-18
4524.99733 9.14655e-18
4530.00483 9.49466e-18
4535.00232 9.83769e-18
4539.99980 1.02056e-17
4544.99728 1.04840e-17
4550.00479 1.08688e-17
4555.00227 1.10356e-17
4559.99976 1.12231e-17
4564.99724 1.15630e-17
4570.00474 1.19751e-17
4575.00223 1.22692e-17
4579.99971 1.26956e-17
4584.99719 1.33307e-17
4590.00470 1.36832e-17
4595.00218 1.38963e-17
4599.99967 1.39725e-17
4604.99715 1.41469e-17
4610.00465 1.43836e-17
4615.00214 1.45961e-17
4619.99962 1.45326e-17
4624.99711 1.45579e-17
4630.00461 1.43691e-17
4635.00209 1.44769e-17
4639.99958 1.45593e-17
4644.99706 1.45432e-17
4650.00456 1.42480e-17
4655.00205 1.38684e-17
4659.99953 1.29870e-17
4664.99702 1.23034e-17
4670.00452 1.13399e-17
4675.00200 1.03339e-17
4679.99949 9.34584e-18
4684.99697 8.74200e-18
4690.00447 8.69850e-18
4695.00196 8.61127e-18
4699.99944 9.11597e-18
4704.99693 9.82627e-18
4710.00443 1.05663e-17
4715.00191 1.12866e-17
4719.99940 1.17032e-17
4724.99688 1.21194e-17
4730.00438 1.24758e-17
4735.00187 1.29429e-17
4739.99935 1.30169e-17
4744.99684 1.29942e-17
4750.00434 1.29687e-17
4755.00182 1.28482e-17
4759.99931 1.27687e-17
4764.99679 1.28608e-17
4770.00429 1.28872e-17
4775.00178 1.26675e-17
4779.99926 1.24648e-17
4784.99675 1.23661e-17
4790.00425 1.22432e-17
4795.00173 1.20316e-17
4799.99922 1.15602e-17
4804.99670 1.12963e-17
4810.00420 1.09384e-17
4815.00169 1.06834e-17
4819.99917 1.05516e-17
4824.99666 1.04135e-17
4830.00416 1.04947e-17
4835.00164 1.06314e-17
4839.99913 1.08027e-17
4844.99661 1.11065e-17
4850.00411 1.11869e-17
4855.00159 1.12536e-17
4859.99908 1.15005e-17
4864.99657 1.16068e-17
4870.00407 1.16670e-17
4875.00155 1.17262e-17
4879.99903 1.15912e-17
4884.99652 1.14540e-17
4890.00402 1.11727e-17
4895.00151 1.09936e-17
4899.99899 1.09572e-17
4904.99647 1.07342e-17
4910.00397 1.08509e-17
4915.00146 1.08774e-17
4919.99895 1.10285e-17
4924.99643 1.12894e-17
4930.00393 1.16409e-17
4935.00141 1.19567e-17
4939.99890 1.21177e-17
4944.99639 1.24723e-17
4950.00389 1.28109e-17
4955.00137 1.33246e-17
4959.99885 1.40065e-17
4964.99634 1.45089e-17
4970.00384 1.53466e-17
4975.00133 1.61776e-17
4979.99881 1.65916e-17
4984.99629 1.69251e-17
4990.00379 1.72257e-17
4995.00128 1.76376e-17
4999.99877 1.77662e-17
5004.99625 1.76725e-17
5010.00375 1.73612e-17
5015.00123 1.70199e-17
5019.99872 1.62736e-17
5024.99621 1.57476e-17
5030.00371 1.50446e-17
5035.00119 1.40675e-17
5039.99867 1.30293e-17
5044.99616 1.20730e-17
5050.00366 1.13093e-17
5055.00115 1.05365e-17
5059.99863 9.97615e-18
5064.99611 9.55263e-18
5070.00362 9.28221e-18
5075.00110 9.10116e-18
5079.99859 9.01668e-18
5084.99607 8.97885e-18
5090.00357 9.12553e-18
5095.00106 9.27966e-18
5099.99854 9.45159e-18
5104.99603 9.69336e-18
5110.00353 9.93799e-18
5115.00101 1.01631e-17
5119.99849 1.03885e-17
5124.99598 1.05117e-17
5130.00348 1.07541e-17
5135.00097 1.10585e-17
5139.99845 1.10469e-17
5144.99593 1.10962e-17
5150.00344 1.12400e-17
5155.00092 1.12738e-17
5159.99841 1.12895e-17
5164.99589 1.12566e-17
5170.00339 1.12716e-17
5175.00088 1.12045e-17
5179.99836 1.12554e-17
5184.99584 1.12042e-17
5190.00335 1.11457e-17
5195.00083 1.09265e-17
5199.99832 1.10291e-17
5204.99580 1.08190e-17
5210.00330 1.07781e-17
5215.00079 1.07348e-17
5219.99827 1.07317e-17
5224.99575 1.07568e-17
5230.00326 1.07116e-17
5235.00074 1.09955e-17
5239.99823 1.10542e-17
5244.99571 1.10479e-17
5250.00321 1.14584e-17
5255.00070 1.16627e-17
5259.99818 1.20336e-17
5264.99567 1.23674e-17
5270.00317 1.25908e-17
5275.00065 1.30946e-17
5279.99814 1.33819e-17
5284.99562 1.38011e-17
5290.00312 1.42348e-17
5295.00061 1.44010e-17
5299.99809 1.47482e-17
5304.99558 1.50769e-17
5310.00308 1.54234e-17
5315.00056 1.58603e-17
5319.99805 1.62368e-17
5324.99553 1.66640e-17
5330.00303 1.71645e-17
5335.00052 1.74778e-17
5339.99800 1.78694e-17
5344.99549 1.79741e-17
5350.00299 1.84035e-17
5355.00047 1.84376e-17
5359.99796 1.87400e-17
5364.99544 1.87612e-17
5370.00294 1.87282e-17
5375.00043 1.87594e-17
5379.99791 1.88227e-17
5384.99540 1.90595e-17
5390.00290 1.90361e-17
5395.00038 1.91545e-17
5399.99787 1.90785e-17
5404.99535 1.91352e-17
5410.00285 1.90053e-17
5415.00034 1.92304e-17
5419.99782 1.88690e-17
5424.99531 1.89001e-17
5430.00281 1.88455e-17
5435.00029 1.86861e-17
5439.99778 1.87337e-17
5444.99526 1.85350e-17
5450.00276 1.84383e-17
5455.00025 1.83255e-17
5459.99773 1.81342e-17
5464.99522 1.82119e-17
5470.00272 1.85324e-17
5475.00020 1.86272e-17
5479.99769 1.90500e-17
5484.99517 1.93354e-17
5490.00267 1.98378e-17
5495.00016 2.02761e-17
5499.99764 2.07380e-17
5504.99513 2.11695e-17
5510.00263 2.13978e-17
5515.00011 2.18450e-17
5519.99759 2.18251e-17
5525.00509 2.17329e-17
5530.00258 2.16837e-17
5535.00007 2.16218e-17
5539.99755 2.13723e-17
5544.99503 2.11831e-17
5550.00253 2.05754e-17
5555.00002 2.03247e-17
5559.99751 2.01552e-17
5565.00500 1.98698e-17
5570.00249 1.95550e-17
5574.99997 1.93412e-17
5579.99746 1.90677e-17
5584.99495 1.86885e-17
5590.00245 1.84875e-17
5594.99993 1.82428e-17
5599.99741 1.81788e-17
5604.99490 1.81281e-17
5610.00240 1.82808e-17
5614.99989 1.85558e-17
5619.99737 1.90701e-17
5625.00487 1.93530e-17
5630.00235 1.95638e-17
5634.99984 1.99605e-17
5639.99733 2.00016e-17
5644.99481 2.01642e-17
5650.00231 2.00018e-17
5654.99979 1.97638e-17
5659.99728 1.93618e-17
5665.00478 1.87609e-17
5670.00227 1.80011e-17
5674.99975 1.68590e-17
5679.99723 1.55156e-17
5685.00474 1.42244e-17
5690.00222 1.29478e-17
5694.99971 1.19212e-17
5699.99719 1.10155e-17
5705.00469 1.01962e-17
5710.00218 9.51736e-18
5714.99966 8.98184e-18
5719.99715 8.51850e-18
5725.00465 8.25353e-18
5730.00213 8.15642e-18
5734.99962 8.10171e-18
5739.99710 8.25844e-18
5745.00460 8.49172e-18
5750.00209 8.56076e-18
5754.99957 8.91955e-18
5759.99705 9.32920e-18
5765.00456 9.73613e-18
5770.00204 1.02221e-17
5774.99953 1.06617e-17
5779.99701 1.12149e-17
5785.00451 1.18473e-17
5790.00200 1.24719e-17
5794.99948 1.31160e-17
5799.99697 1.37999e-17
5805.00447 1.44083e-17
5810.00195 1.51394e-17
5814.99944 1.58748e-17
5819.99692 1.65839e-17
5825.00442 1.71098e-17
5830.00191 1.77327e-17
5834.99939 1.82366e-17
5839.99688 1.84810e-17
5845.00438 1.88354e-17
5850.00186 1.93810e-17
5854.99935 1.98879e-17
5859.99683 2.04868e-17
5865.00433 2.11835e-17
5870.00182 2.18766e-17
5874.99930 2.25716e-17
5879.99679 2.26428e-17
5885.00428 2.25909e-17
5890.00177 2.27797e-17
5894.99926 2.29245e-17
5899.99674 2.28765e-17
5905.00424 2.32031e-17
5910.00173 2.33794e-17
5914.99921 2.33148e-17
5919.99670 2.32573e-17
5925.00420 2.31031e-17
5930.00168 2.30548e-17
5934.99917 2.27391e-17
5939.99665 2.24224e-17
5945.00415 2.22335e-17
5950.00164 2.21798e-17
5954.99912 2.20550e-17
5959.99661 2.21366e-17
5965.00410 2.18549e-17
5970.00159 2.20184e-17
5974.99908 2.18712e-17
5979.99656 2.18335e-17
5985.00406 2.14719e-17
5990.00155 2.14447e-17
5994.99903 2.12120e-17
5999.99652 2.07573e-17
6005.00402 2.04854e-17
6010.00150 2.03709e-17
6014.99899 1.99615e-17
6019.99647 1.95841e-17
6025.00397 1.92071e-17
6030.00146 1.88172e-17
6034.99894 1.85624e-17
6039.99643 1.82438e-17
6045.00392 1.79744e-17
6050.00141 1.77226e-17
6054.99890 1.73839e-17
6059.99638 1.70961e-17
6065.00388 1.68465e-17
6070.00137 1.66610e-17
6074.99885 1.64259e-17
6079.99634 1.62573e-17
6085.00384 1.60778e-17
6090.00132 1.58092e-17
6094.99881 1.57526e-17
6099.99629 1.57022e-17
6105.00379 1.56169e-17
6110.00128 1.56130e-17
6114.99876 1.55419e-17
6119.99625 1.56148e-17
6125.00374 1.54141e-17
6130.00123 1.54456e-17
6134.99872 1.53865e-17
6139.99620 1.55494e-17
6145.00370 1.51875e-17
6150.00119 1.51666e-17
6154.99867 1.49180e-17
6159.99616 1.46642e-17
6165.00366 1.43064e-17
6170.00114 1.40539e-17
6174.99863 1.38217e-17
6179.99611 1.36594e-17
6185.00361 1.35619e-17
6190.00109 1.34775e-17
6194.99858 1.34146e-17
6199.99607 1.34995e-17
6205.00356 1.34840e-17
6210.00105 1.34028e-17
6214.99853 1.33730e-17
6219.99602 1.31985e-17
6225.00352 1.30218e-17
6230.00101 1.28517e-17
6234.99849 1.24944e-17
6239.99597 1.20625e-17
6245.00348 1.15567e-17
6250.00096 1.08166e-17
6254.99845 1.02264e-17
6259.99593 9.55809e-18
6265.00343 8.71532e-18
6270.00091 7.85778e-18
6274.99840 7.05855e-18
6279.99589 6.34380e-18
6285.00339 5.71223e-18
6290.00087 5.17253e-18
6294.99835 4.75250e-18
6299.99584 4.47873e-18
6305.00334 4.29377e-18
6310.00083 4.15711e-18
6314.99831 4.02454e-18
6319.99579 3.98870e-18
6325.00330 4.11931e-18
6330.00078 4.47824e-18
6334.99827 4.72408e-18
6339.99575 5.13595e-18
6345.00325 5.79643e-18
6350.00074 6.55090e-18
6354.99822 7.24029e-18
6359.99571 8.00342e-18
6365.00321 8.64066e-18
6370.00069 9.21274e-18
6374.99818 9.75614e-18
6379.99566 1.03085e-17
6385.00316 1.08822e-17
6390.00065 1.14938e-17
6394.99813 1.20160e-17
6399.99561 1.26439e-17
6405.00312 1.31539e-17
6410.00060 1.35386e-17
6414.99809 1.41932e-17
6419.99557 1.48459e-17
6425.00307 1.53489e-17
6430.00056 1.57247e-17
6434.99804 1.63423e-17
6439.99553 1.68197e-17
6445.00303 1.72769e-17
6450.00051 1.75653e-17
6454.99800 1.79788e-17
6459.99548 1.82138e-17
6465.00298 1.84348e-17
6470.00047 1.82219e-17
6474.99795 1.80688e-17
6479.99544 1.80992e-17
6485.00294 1.79812e-17
6490.00042 1.79792e-17
6494.99791 1.79084e-17
6499.99539 1.79087e-17
6505.00289 1.76724e-17
6510.00038 1.73888e-17
6514.99786 1.69147e-17
6519.99535 1.67537e-17
6525.00284 1.68629e-17
6530.00033 1.70436e-17
6534.99782 1.71389e-17
6539.99530 1.71136e-17
6545.00280 1.73387e-17
6550.00029 1.75041e-17
6554.99777 1.78904e-17
6559.99526 1.82577e-17
6565.00276 1.85496e-17
6570.00024 1.89730e-17
6574.99773 1.92037e-17
6579.99521 1.94241e-17
6585.00271 1.97072e-17
6590.00020 2.01128e-17
6594.99768 2.04959e-17
6599.99517 2.08637e-17
6605.00266 2.11580e-17
6610.00015 2.15224e-17
6614.99764 2.18367e-17
6619.99512 2.20051e-17
6625.00262 2.20009e-17
6630.00011 2.20822e-17
6634.99759 2.21646e-17
6639.99508 2.22620e-17
6645.00258 2.23296e-17
6650.00006 2.22315e-17
6654.99755 2.23454e-17
6659.99503 2.22946e-17
6665.00253 2.26503e-17
6670.00002 2.27297e-17
6674.99750 2.32281e-17
6680.00500 2.33292e-17
6685.00248 2.35084e-17
6689.99997 2.34321e-17
6694.99746 2.35159e-17
6699.99494 2.33161e-17
6705.00244 2.33036e-17
6709.99993 2.31372e-17
6714.99741 2.30012e-17
6720.00491 2.27633e-17
6725.00240 2.26464e-17
6729.99988 2.24821e-17
6734.99737 2.22145e-17
6740.00486 2.19382e-17
6745.00235 2.18188e-17
6749.99984 2.17318e-17
6754.99732 2.15645e-17
6760.00482 2.13729e-17
6765.00230 2.12079e-17
6769.99979 2.10609e-17
6774.99728 2.08157e-17
6780.00478 2.05530e-17
6785.00226 2.04904e-17
6789.99975 2.04061e-17
6794.99723 2.01756e-17
6800.00473 1.99037e-17
6805.00222 1.97479e-17
6809.99970 1.95261e-17
6814.99719 1.92321e-17
6820.00469 1.89820e-17
6825.00217 1.87605e-17
6829.99966 1.83744e-17
6834.99714 1.79618e-17
6840.00464 1.72762e-17
6845.00212 1.69046e-17
6849.99961 1.64961e-17
6854.99709 1.58219e-17
6860.00460 1.53627e-17
6865.00208 1.46921e-17
6869.99957 1.39915e-17
6874.99705 1.40859e-17
6880.00455 1.40198e-17
6885.00204 1.34151e-17
6889.99952 1.29486e-17
6894.99701 1.27755e-17
6900.00451 1.26561e-17
6905.00199 1.25745e-17
6909.99947 1.25320e-17
6914.99696 1.25402e-17
6920.00446 1.26492e-17
6925.00195 1.27209e-17
6929.99943 1.29576e-17
6934.99691 1.31552e-17
6940.00442 1.34644e-17
6945.00190 1.37609e-17
6949.99939 1.40375e-17
6954.99687 1.42866e-17
6960.00437 1.45437e-17
6965.00186 1.48646e-17
6969.99934 1.51319e-17
6974.99683 1.52405e-17
6980.00433 1.54527e-17
6985.00181 1.56175e-17
6989.99930 1.58465e-17
6994.99678 1.59484e-17
7000.00428 1.58455e-17
7005.00177 1.61797e-17
7009.99925 1.62515e-17
7014.99674 1.62759e-17
7020.00424 1.62984e-17
7025.00172 1.63460e-17
7029.99921 1.64836e-17
7034.99669 1.64604e-17
7040.00419 1.66149e-17
7045.00168 1.65614e-17
7049.99916 1.66678e-17
7054.99665 1.68211e-17
7060.00415 1.70197e-17
7065.00163 1.72753e-17
7069.99912 1.75185e-17
7074.99660 1.72930e-17
7080.00410 1.70690e-17
7085.00159 1.71459e-17
7089.99907 1.72211e-17
7094.99656 1.70549e-17
7100.00406 1.68969e-17
7105.00154 1.67356e-17
7109.99903 1.65769e-17
7114.99651 1.64872e-17
7120.00401 1.63950e-17
7125.00150 1.61365e-17
7129.99898 1.59862e-17
7134.99647 1.57975e-17
7140.00397 1.56475e-17
7145.00145 1.56257e-17
7149.99894 1.54583e-17
7154.99642 1.54451e-17
7160.00392 1.54044e-17
7165.00141 1.52816e-17
7169.99889 1.51874e-17
7174.99638 1.50537e-17
7180.00388 1.51953e-17
7185.00136 1.51289e-17
7189.99885 1.49900e-17
7194.99633 1.48156e-17
7200.00383 1.47019e-17
7205.00132 1.46601e-17
7209.99880 1.46724e-17
7214.99629 1.47548e-17
7220.00378 1.44619e-17
7225.00127 1.44193e-17
7229.99876 1.44254e-17
7234.99624 1.41151e-17
7240.00374 1.42466e-17
7245.00122 1.43453e-17
7249.99871 1.43172e-17
7254.99620 1.42954e-17
7260.00370 1.42349e-17
7265.00118 1.42279e-17
7269.99867 1.43575e-17
7274.99615 1.44516e-17
7280.00365 1.47777e-17
7285.00114 1.51923e-17
7289.99862 1.51415e-17
7294.99611 1.50885e-17
7300.00360 1.52432e-17
7305.00109 1.55026e-17
7309.99858 1.54490e-17
7314.99606 1.54473e-17
7320.00356 1.54832e-17
7325.00104 1.54625e-17
7329.99853 1.52195e-17
7334.99602 1.51977e-17
7340.00352 1.51775e-17
7345.00100 1.50910e-17
7349.99849 1.47640e-17
7354.99597 1.46456e-17
7360.00347 1.44732e-17
7365.00096 1.44018e-17
7369.99844 1.40765e-17
7374.99593 1.41286e-17
7380.00342 1.40236e-17
7385.00091 1.38792e-17
7389.99840 1.37421e-17
7394.99588 1.35949e-17
7400.00338 1.35809e-17
7405.00086 1.36325e-17
7409.99835 1.36316e-17
7414.99584 1.35348e-17
7420.00334 1.35745e-17
7425.00082 1.36731e-17
7429.99831 1.37851e-17
7434.99579 1.37871e-17
7440.00329 1.38111e-17
7445.00078 1.39332e-17
7449.99826 1.40412e-17
7454.99575 1.41514e-17
7460.00325 1.43486e-17
7465.00073 1.45122e-17
7469.99822 1.45872e-17
7474.99570 1.46289e-17
7480.00320 1.47495e-17
7485.00068 1.48297e-17
7489.99817 1.48759e-17
7494.99566 1.49843e-17
7500.00316 1.49997e-17
7505.00064 1.50093e-17
7509.99813 1.49904e-17
7514.99561 1.50114e-17
7520.00311 1.50321e-17
7525.00060 1.49869e-17
7529.99808 1.48095e-17
7534.99557 1.46261e-17
7540.00307 1.43583e-17
7545.00055 1.42832e-17
7549.99803 1.42290e-17
7554.99552 1.38660e-17
7560.00302 1.36230e-17
7565.00051 1.31992e-17
7569.99799 1.29733e-17
7574.99547 1.27828e-17
7580.00298 1.25913e-17
7585.00046 1.22220e-17
7589.99795 1.18824e-17
7594.99543 1.16711e-17
7600.00293 1.12234e-17
7605.00042 1.08433e-17
7609.99790 1.08936e-17
7614.99539 1.07594e-17
7620.00289 1.05847e-17
7625.00037 1.04060e-17
7629.99786 1.00894e-17
7634.99534 9.90343e-18
7640.00284 1.00202e-17
7645.00033 9.95178e-18
7649.99781 9.77315e-18
7654.99530 9.91485e-18
7660.00280 1.02040e-17
7665.00028 1.01494e-17
7669.99777 1.01720e-17
7674.99525 1.04941e-17
7680.00275 1.07467e-17
7685.00024 1.08297e-17
7689.99772 1.10942e-17
7694.99521 1.11771e-17
7700.00271 1.12916e-17
7705.00019 1.16169e-17
7709.99768 1.17484e-17
7714.99516 1.18838e-17
7720.00266 1.21361e-17
7725.00015 1.24213e-17
7729.99763 1.26660e-17
7735.00513 1.28354e-17
7740.00262 1.29159e-17
7745.00010 1.30574e-17
7749.99759 1.31914e-17
7754.99507 1.32727e-17
7760.00257 1.33355e-17
7765.00006 1.32965e-17
7769.99754 1.34748e-17
7774.99503 1.35382e-17
7780.00253 1.33936e-17
7785.00001 1.32229e-17
7789.99750 1.31078e-17
7794.99498 1.29475e-17
7800.00248 1.28295e-17
7804.99997 1.28941e-17
7809.99745 1.28427e-17
7814.99494 1.28093e-17
7820.00244 1.26618e-17
7824.99992 1.25191e-17
7829.99741 1.25206e-17
7835.00491 1.24553e-17
7840.00239 1.25133e-17
7844.99988 1.26315e-17
7849.99736 1.27240e-17
7854.99485 1.27009e-17
7860.00234 1.29547e-17
7864.99983 1.30594e-17
7869.99732 1.32165e-17
7875.00482 1.29736e-17
7880.00230 1.30138e-17
7884.99978 1.33064e-17
7889.99727 1.32843e-17
7895.00477 1.33534e-17
7900.00226 1.33862e-17
7904.99974 1.33832e-17
7909.99723 1.35160e-17
7915.00472 1.34862e-17
7920.00221 1.34163e-17
7924.99970 1.32391e-17
7929.99718 1.31277e-17
7935.00468 1.30865e-17
7940.00216 1.30338e-17
7944.99965 1.30461e-17
7949.99714 1.29858e-17
7955.00464 1.28747e-17
7960.00212 1.27403e-17
7964.99960 1.25631e-17
7969.99709 1.25335e-17
7975.00459 1.24051e-17
7980.00208 1.23318e-17
7984.99956 1.23218e-17
7989.99705 1.21883e-17
7995.00454 1.20814e-17
8000.00203 1.20928e-17
8004.99952 1.21315e-17
8009.99700 1.20060e-17
8015.00450 1.19578e-17
8020.00198 1.18644e-17
8024.99947 1.16938e-17
8029.99696 1.15513e-17
8035.00446 1.15134e-17
8040.00194 1.15248e-17
8044.99942 1.15572e-17
8049.99691 1.13247e-17
8055.00441 1.13339e-17
8060.00190 1.13309e-17
8064.99938 1.11942e-17
8069.99687 1.10661e-17
8075.00437 1.09837e-17
8080.00185 1.08766e-17
8084.99934 1.08596e-17
8089.99682 1.07682e-17
8095.00432 1.07662e-17
8100.00181 1.07586e-17
8104.99929 1.05077e-17
8109.99678 1.04589e-17
8115.00428 1.03179e-17
8120.00176 1.02003e-17
8124.99924 1.00370e-17
8129.99673 9.99527e-18
8135.00423 9.81373e-18
8140.00172 9.66835e-18
8144.99920 9.62847e-18
8149.99669 9.51818e-18
8155.00419 9.43369e-18
8160.00167 9.52244e-18
8164.99916 9.36232e-18
8169.99664 9.34054e-18
8175.00414 9.50700e-18
8180.00163 9.53498e-18
8184.99911 9.40624e-18
8189.99659 9.25175e-18
8195.00410 9.04891e-18
8200.00158 8.77297e-18
8204.99906 8.63708e-18
8209.99655 8.46156e-18
8215.00405 8.27797e-18
8220.00154 7.93530e-18
8224.99902 7.72741e-18
8229.99651 7.30605e-18
8235.00401 6.76838e-18
8240.00149 6.40280e-18
8244.99898 6.07282e-18
8249.99646 5.59047e-18
8255.00396 5.10061e-18
8260.00144 4.72559e-18
8264.99893 4.45458e-18
8269.99642 4.03458e-18
8275.00392 3.72228e-18
8280.00140 3.52020e-18
8284.99889 3.35477e-18
8289.99637 3.20014e-18
8295.00387 3.01930e-18
8300.00136 2.89629e-18
8304.99884 2.78699e-18
8309.99633 2.71896e-18
8315.00382 2.67696e-18
8320.00131 2.66724e-18
8324.99880 2.61273e-18
8329.99628 2.55172e-18
8335.00378 2.56979e-18
8340.00127 2.61142e-18
8344.99875 2.63863e-18
8349.99624 2.63431e-18
8355.00374 2.64384e-18
8360.00122 2.76509e-18
8364.99870 2.82264e-18
8369.99619 2.84653e-18
8375.00369 2.86647e-18
8380.00118 2.90072e-18
8384.99866 2.97879e-18
8389.99615 3.01557e-18
8395.00365 3.13458e-18
8400.00113 3.11017e-18
8404.99862 3.19631e-18
8409.99610 3.32032e-18
8415.00360 3.38170e-18
8420.00108 3.44251e-18
8424.99857 3.62290e-18
8429.99606 3.59333e-18
8435.00356 3.72337e-18
8440.00104 3.77713e-18
8444.99853 3.87919e-18
8449.99601 3.93523e-18
8455.00351 3.89521e-18
8460.00100 3.95924e-18
8464.99848 3.99977e-18
8469.99597 4.08232e-18
8475.00346 4.25332e-18
8480.00095 4.37633e-18
8484.99844 4.48913e-18
8489.99592 4.70464e-18
8495.00342 4.86839e-18
8500.00091 4.97328e-18
8504.99839 5.15280e-18
8509.99588 5.36176e-18
8515.00338 5.64283e-18
8520.00086 5.92933e-18
8524.99834 6.14604e-18
8529.99583 6.41871e-18
8535.00333 6.58927e-18
8540.00081 6.87604e-18
8544.99830 7.15943e-18
8549.99579 7.41665e-18
8555.00329 7.60831e-18
8560.00077 7.86513e-18
8564.99826 7.98694e-18
8569.99574 8.25139e-18
8575.00324 8.50215e-18
8580.00072 8.75127e-18
8584.99821 9.11460e-18
8589.99569 9.31892e-18
8595.00319 9.55436e-18
8600.00068 9.84346e-18
8604.99817 1.01232e-17
8609.99565 1.02271e-17
8615.00315 1.03020e-17
8620.00064 1.06002e-17
8624.99812 1.08021e-17
8629.99561 1.10493e-17
8635.00310 1.12877e-17
8640.00059 1.14854e-17
8644.99807 1.17383e-17
8649.99556 1.20926e-17
8655.00306 1.22375e-17
8660.00055 1.23043e-17
8664.99803 1.23503e-17
8669.99552 1.24219e-17
8675.00302 1.23942e-17
8680.00050 1.22984e-17
8684.99798 1.23335e-17
8689.99547 1.23443e-17
8695.00297 1.23358e-17
8700.00045 1.22612e-17
8704.99794 1.22666e-17
8709.99543 1.22291e-17
8715.00293 1.22434e-17
8720.00041 1.22862e-17
8724.99790 1.21643e-17
8729.99538 1.20148e-17
8735.00288 1.19721e-17
8740.00036 1.17790e-17
8744.99785 1.18427e-17
8749.99533 1.18836e-17
8755.00283 1.15733e-17
8760.00032 1.14998e-17
8764.99781 1.13836e-17
8769.99529 1.11398e-17
8775.00279 1.08770e-17
8780.00028 1.07645e-17
8784.99776 1.07518e-17
8789.99525 1.06842e-17
8795.00274 1.03529e-17
8800.00023 1.02779e-17
8804.99771 1.01020e-17
8809.99520 9.81957e-18
8815.00270 9.71313e-18
8820.00019 9.66163e-18
8824.99767 9.52125e-18
8829.99516 9.51667e-18
8835.00266 9.43024e-18
8840.00014 9.31247e-18
8844.99762 9.27479e-18
8850.00512 9.18098e-18
8855.00261 9.05116e-18
8860.00009 9.00097e-18
8864.99758 9.08980e-18
8869.99506 8.96200e-18
8875.00256 8.85700e-18
8880.00005 8.79828e-18
8884.99754 8.73910e-18
8889.99502 8.73925e-18
8895.00252 8.68360e-18
8900.00000 8.62865e-18
8904.99749 8.54077e-18
8910.00499 8.48476e-18
8915.00247 8.31543e-18
8919.99996 8.15001e-18
8924.99744 7.98032e-18
8929.99493 7.97366e-18
8935.00243 8.11523e-18
8939.99992 8.01481e-18
8944.99740 7.76427e-18
8949.99489 7.69673e-18
8955.00238 7.61539e-18
8959.99987 7.61542e-18
8964.99735 7.32084e-18
8970.00486 7.34251e-18
8975.00234 7.43171e-18
8979.99982 7.32417e-18
8984.99731 7.40877e-18
8990.00481 7.44787e-18
8995.00230 7.51690e-18
8999.99978 7.80204e-18
9004.99726 7.94982e-18
9009.99475 8.32621e-18
9015.00225 8.42287e-18
9019.99973 8.07274e-18
9024.99722 7.65308e-18
9030.00472 7.18652e-18
9035.00221 7.09990e-18
9039.99969 7.08220e-18
9044.99718 7.07290e-18
9050.00468 6.98770e-18
9055.00216 7.00802e-18
9059.99965 7.04686e-18
9064.99713 7.18726e-18
9070.00463 6.88458e-18
9075.00212 6.61645e-18
9079.99960 6.72630e-18
9084.99708 6.59898e-18
9090.00459 6.40771e-18
9095.00207 6.41381e-18
9099.99956 6.22686e-18
9104.99704 6.30514e-18
9110.00454 6.21642e-18
9115.00203 6.13789e-18
9119.99951 6.08110e-18
9124.99700 5.88581e-18
9130.00450 5.90745e-18
9135.00198 5.84703e-18
9139.99947 5.83658e-18
9144.99695 5.90158e-18
9150.00445 6.00712e-18
9155.00194 5.88021e-18
9159.99942 6.06106e-18
9164.99691 6.25545e-18
9170.00441 6.39237e-18
9175.00189 6.31327e-18
9179.99938 6.45056e-18
9184.99686 6.65120e-18
9190.00436 6.70402e-18
9195.00185 6.77570e-18
9199.99933 6.96069e-18
9204.99682 7.25674e-18
9210.00432 7.56408e-18
9215.00180 7.94838e-18
9219.99929 8.32846e-18
9224.99677 8.57894e-18
9230.00427 8.75365e-18
9235.00176 8.52016e-18
9239.99924 8.04238e-18
9244.99673 7.82030e-18
9250.00423 7.78797e-18
9255.00171 7.77554e-18
9259.99920 7.89637e-18
9264.99668 7.74656e-18
9270.00418 7.54727e-18
9275.00167 7.56899e-18
9279.99915 7.41184e-18
9284.99664 7.16450e-18
9290.00414 7.23982e-18
9295.00162 7.31502e-18
9299.99911 7.06827e-18
9304.99659 7.27460e-18
9310.00409 7.17684e-18
9315.00158 7.17354e-18
9319.99906 6.95391e-18
9324.99655 6.96588e-18
9330.00405 7.04000e-18
9335.00153 7.04114e-18
9339.99902 6.67008e-18
9344.99650 7.26117e-18
9350.00400 7.56329e-18
9355.00149 7.35035e-18
9359.99897 7.12693e-18
9364.99646 7.33400e-18
9370.00396 7.21452e-18
9375.00144 7.17445e-18
9379.99893 7.42899e-18
9384.99641 7.43680e-18
9390.00391 7.49829e-18
9395.00140 7.67098e-18
9399.99888 7.49041e-18
9404.99637 7.45904e-18
9410.00387 7.42499e-18
9415.00135 7.47872e-18
9419.99884 7.45217e-18
9424.99632 7.07627e-18
9430.00382 6.98976e-18
9435.00131 6.95824e-18
9439.99879 6.88987e-18
9444.99628 6.84136e-18
9450.00378 7.21710e-18
9455.00126 6.94386e-18
9459.99875 6.66022e-18
9464.99623 6.92349e-18
9470.00373 6.78529e-18
9475.00122 6.63336e-18
9479.99870 6.59234e-18
9484.99619 6.56410e-18
9490.00369 6.88228e-18
9495.00117 6.54418e-18
9499.99866 6.22290e-18
9504.99614 6.72330e-18
9510.00364 6.73693e-18
9515.00113 6.66914e-18
9519.99861 6.50206e-18
9524.99610 6.56975e-18
9530.00360 6.81811e-18
9535.00108 7.09368e-18
9539.99856 7.32228e-18
9544.99605 7.31832e-18
9550.00355 7.10415e-18
9555.00104 6.79932e-18
9559.99852 6.49025e-18
9564.99601 6.50957e-18
9570.00351 6.64533e-18
9575.00099 6.59340e-18
9579.99848 6.44713e-18
9584.99596 6.36991e-18
9590.00346 6.28672e-18
9595.00094 6.34577e-18
9599.99843 6.73467e-18
9604.99592 6.65281e-18
9610.00342 6.53963e-18
9615.00090 6.74221e-18
9619.99839 6.87540e-18
9624.99587 6.78548e-18
9630.00337 6.85514e-18
9635.00086 6.68103e-18
9639.99834 6.69975e-18
9644.99582 6.78815e-18
9650.00332 6.81487e-18
9655.00081 6.93478e-18
9659.99830 6.77738e-18
9664.99578 6.73262e-18
9670.00328 6.70529e-18
9675.00077 6.55207e-18
9679.99825 6.75372e-18
9684.99574 6.71489e-18
9690.00324 6.56367e-18
9695.00072 6.39211e-18
9699.99820 6.46664e-18
9704.99569 6.42474e-18
9710.00319 6.25097e-18
9715.00068 6.13635e-18
9719.99816 6.29266e-18
9724.99565 6.40078e-18
9730.00315 6.19035e-18
9735.00063 5.96602e-18
9739.99812 6.06914e-18
9744.99560 6.14938e-18
9750.00310 6.05527e-18
9755.00058 5.84306e-18
9759.99807 5.76646e-18
9764.99556 5.96564e-18
9770.00306 5.95556e-18
9775.00054 5.66429e-18
9779.99803 5.74762e-18
9784.99551 5.70490e-18
9790.00301 5.72669e-18
9795.00050 5.68798e-18
9799.99798 5.62725e-18
9804.99546 5.75955e-18
9810.00296 5.84049e-18
9815.00045 5.82879e-18
9819.99794 5.73590e-18
9824.99542 5.78933e-18
9830.00292 5.71456e-18
9835.00041 5.83983e-18
9839.99789 5.93602e-18
9844.99538 5.84660e-18
9850.00288 5.91254e-18
9855.00036 5.78898e-18
9859.99784 5.41654e-18
9864.99533 5.47801e-18
9870.00283 5.46076e-18
9875.00031 5.64501e-18
9879.99780 5.63985e-18
9884.99529 5.35441e-18
9890.00279 5.34212e-18
9895.00027 5.39970e-18
9899.99776 5.49065e-18
9905.00526 5.56752e-18
9910.00274 5.57736e-18
9915.00022 5.54360e-18
9919.99771 5.57903e-18
9924.99519 5.74076e-18
9930.00269 5.93667e-18
9935.00018 5.90095e-18
9939.99767 5.90708e-18
9944.99515 5.89949e-18
9950.00265 5.66800e-18
9955.00014 5.53788e-18
9959.99762 5.32722e-18
9965.00512 5.27928e-18
9970.00260 5.29615e-18
9975.00009 5.23385e-18
9979.99757 5.25122e-18
9984.99506 5.16272e-18
9990.00256 5.44490e-18
9995.00005 5.26493e-18
9999.99753 5.51835e-18
