# wavelength flux
4149.99767 9.50828e-18
4152.00458 1.01558e-17
4154.00141 1.00752e-17
4155.99824 9.39392e-18
4158.00516 9.30535e-18
4160.00199 9.17779e-18
4161.99882 9.04776e-18
4163.99565 9.39800e-18
4166.00256 1.02215e-17
4167.99939 1.08816e-17
4169.99622 1.07209e-17
4172.00314 9.92886e-18
4173.99997 9.15927e-18
4175.99680 9.16906e-18
4178.00371 1.04521e-17
4180.00054 1.13171e-17
4181.99737 1.05423e-17
4184.00429 1.01142e-17
4186.00112 1.01359e-17
4187.99795 1.00252e-17
4190.00486 9.86848e-18
4192.00169 9.67709e-18
4193.99852 9.56684e-18
4195.99536 9.81136e-18
4198.00227 9.94718e-18
4199.99910 9.82694e-18
4201.99593 1.01297e-17
4204.00284 1.03989e-17
4205.99968 1.00828e-17
4207.99650 9.21665e-18
4210.00342 8.72439e-18
4212.00025 8.95987e-18
4213.99708 9.24176e-18
4216.00400 9.62142e-18
4218.00082 1.00489e-17
4219.99766 1.02034e-17
4222.00457 1.01497e-17
4224.00140 1.01717e-17
4225.99823 1.04940e-17
4227.99506 1.05261e-17
4230.00198 1.00506e-17
4231.99881 9.52104e-18
4233.99564 9.97076e-18
4236.00255 1.07460e-17
4237.99938 1.02966e-17
4239.99621 9.54241e-18
4242.00313 9.34375e-18
4243.99995 9.72024e-18
4245.99679 9.37037e-18
4248.00370 8.38371e-18
4250.00053 7.84123e-18
4251.99736 8.12199e-18
4254.00427 9.21495e-18
4256.00111 1.05370e-17
4257.99793 1.06703e-17
4260.00485 1.01929e-17
4262.00168 1.02620e-17
4263.99851 1.03083e-17
4265.99534 1.03553e-17
4268.00225 1.06285e-17
4269.99909 1.09412e-17
4271.99591 1.11088e-17
4274.00283 1.10048e-17
4275.99966 1.06098e-17
4277.99649 1.01883e-17
4280.00341 1.01424e-17
4282.00023 1.07940e-17
4283.99707 1.11708e-17
4286.00398 1.06465e-17
4288.00081 1.00132e-17
4289.99764 9.93197e-18
4292.00455 1.03740e-17
4294.00139 1.05248e-17
4295.99821 1.07541e-17
4297.99505 1.11551e-17
4300.00196 1.10674e-17
4301.99879 1.11704e-17
4303.99562 1.15526e-17
4306.00253 1.13092e-17
4307.99936 1.07389e-17
4309.99619 1.06074e-17
4312.00311 1.14500e-17
4313.99994 1.20837e-17
4315.99677 1.18587e-17
4318.00368 1.11856e-17
4320.00051 1.05489e-17
4321.99734 1.02642e-17
4324.00426 1.03057e-17
4326.00109 1.01630e-17
4327.99792 9.94510e-18
4330.00483 1.01296e-17
4332.00166 1.03394e-17
4333.99849 1.06049e-17
4335.99532 1.10483e-17
4338.00224 1.07470e-17
4339.99907 1.03494e-17
4341.99590 1.08503e-17
4344.00281 1.09365e-17
4345.99964 1.07038e-17
4347.99647 1.08300e-17
4350.00339 1.07442e-17
4352.00022 1.08679e-17
4353.99705 1.14838e-17
4356.00396 1.12310e-17
4358.00079 1.07408e-17
4359.99762 1.09621e-17
4362.00454 1.12067e-17
4364.00137 1.11099e-17
4365.99820 1.07202e-17
4368.00511 1.04540e-17
4370.00194 1.04673e-17
4371.99877 1.07659e-17
4373.99561 1.13059e-17
4376.00252 1.16519e-17
4377.99935 1.15507e-17
4379.99618 1.12650e-17
4382.00309 1.11267e-17
4383.99993 1.11726e-17
4385.99675 1.12185e-17
4388.00367 1.12644e-17
4390.00050 1.13103e-17
4391.99733 1.13561e-17
4394.00425 1.14020e-17
4396.00107 1.14478e-17
4397.99791 1.14937e-17
4400.00482 1.15395e-17
4402.00165 1.15853e-17
4403.99848 1.16311e-17
4405.99531 1.16769e-17
4408.00223 1.17227e-17
4409.99905 1.17685e-17
4411.99589 1.18142e-17
4414.00280 1.18600e-17
4415.99963 1.19057e-17
4417.99646 1.19515e-17
4420.00338 1.19972e-17
4422.00020 1.23354e-17
4423.99703 1.19884e-17
4426.00395 1.17569e-17
4428.00078 1.27752e-17
4429.99761 1.31721e-17
4432.00452 1.27026e-17
4434.00136 1.22789e-17
4435.99818 1.22733e-17
4438.00510 1.22716e-17
4440.00193 1.18558e-17
4441.99876 1.16812e-17
4443.99559 1.18093e-17
4446.00250 1.19891e-17
4447.99934 1.21222e-17
4449.99616 1.26011e-17
4452.00308 1.33714e-17
4453.99991 1.31651e-17
4455.99674 1.31401e-17
4458.00366 1.37700e-17
4460.00048 1.26517e-17
4461.99732 1.15646e-17
4464.00423 1.21261e-17
4466.00106 1.28998e-17
4467.99789 1.32628e-17
4470.00480 1.32254e-17
4472.00164 1.32322e-17
4473.99846 1.33921e-17
4475.99530 1.36420e-17
4478.00221 1.38421e-17
4479.99904 1.36278e-17
4481.99587 1.31267e-17
4484.00278 1.29990e-17
4485.99961 1.33047e-17
4487.99644 1.34673e-17
4490.00336 1.28066e-17
4492.00019 1.25921e-17
4493.99702 1.31779e-17
4496.00393 1.36565e-17
4498.00076 1.38174e-17
4499.99759 1.39050e-17
4502.00451 1.42049e-17
4504.00134 1.39631e-17
4505.99817 1.33399e-17
4507.99500 1.31962e-17
4510.00191 1.37176e-17
4511.99874 1.41190e-17
4513.99557 1.36136e-17
4516.00249 1.33253e-17
4517.99932 1.35310e-17
4519.99615 1.37992e-17
4522.00306 1.39593e-17
4523.99989 1.38979e-17
4525.99672 1.36721e-17
4528.00364 1.36272e-17
4530.00047 1.37649e-17
4531.99730 1.39173e-17
4534.00421 1.40641e-17
4536.00104 1.38075e-17
4537.99788 1.32318e-17
4540.00479 1.36437e-17
4542.00162 1.42228e-17
4543.99845 1.39655e-17
4545.99528 1.34826e-17
4548.00220 1.32859e-17
4549.99902 1.34399e-17
4551.99586 1.34339e-17
4554.00277 1.37403e-17
4555.99960 1.44336e-17
4557.99643 1.45487e-17
4560.00334 1.45977e-17
4562.00018 1.47564e-17
4563.99700 1.42090e-17
4566.00392 1.36455e-17
4568.00075 1.37085e-17
4569.99758 1.42375e-17
4572.00450 1.42127e-17
4574.00132 1.37653e-17
4575.99816 1.42127e-17
4578.00507 1.45312e-17
4580.00190 1.43049e-17
4581.99873 1.42253e-17
4583.99556 1.42251e-17
4586.00248 1.40990e-17
4587.99930 1.37518e-17
4589.99614 1.34570e-17
4592.00305 1.34037e-17
4593.99988 1.35495e-17
4595.99671 1.35442e-17
4598.00362 1.35393e-17
4600.00045 1.38814e-17
4601.99728 1.41484e-17
4604.00420 1.41123e-17
4606.00103 1.38214e-17
4607.99786 1.34015e-17
4610.00477 1.33577e-17
4612.00160 1.39794e-17
4613.99843 1.45187e-17
4615.99526 1.42868e-17
4618.00218 1.33573e-17
4619.99901 1.31798e-17
4621.99584 1.33749e-17
4624.00275 1.31607e-17
4625.99958 1.31907e-17
4627.99641 1.34014e-17
4630.00333 1.35755e-17
4632.00016 1.39245e-17
4633.99699 1.43013e-17
4636.00391 1.44514e-17
4638.00073 1.42604e-17
4639.99756 1.37558e-17
4642.00448 1.32528e-17
4644.00131 1.32972e-17
4645.99814 1.35308e-17
4648.00505 1.35411e-17
4650.00189 1.33861e-17
4651.99871 1.33753e-17
4653.99554 1.35006e-17
4656.00246 1.33472e-17
4657.99929 1.34422e-17
4659.99612 1.39746e-17
4662.00303 1.43965e-17
4663.99986 1.41734e-17
4665.99669 1.33199e-17
4668.00361 1.24741e-17
4670.00044 1.24132e-17
4671.99727 1.31780e-17
4674.00418 1.40354e-17
4676.00101 1.42005e-17
4677.99784 1.38740e-17
4680.00476 1.38667e-17
4682.00159 1.38499e-17
4683.99842 1.36921e-17
4685.99525 1.35270e-17
4688.00216 1.32381e-17
4689.99899 1.30210e-17
4691.99582 1.30845e-17
4694.00274 1.29032e-17
4695.99957 1.27680e-17
4697.99640 1.31235e-17
4700.00331 1.31633e-17
4702.00014 1.29521e-17
4703.99698 1.29341e-17
4706.00389 1.29512e-17
4708.00072 1.26012e-17
4709.99755 1.19428e-17
4712.00446 1.21945e-17
4714.00130 1.27957e-17
4715.99813 1.28143e-17
4717.99495 1.25574e-17
4720.00187 1.22207e-17
4721.99870 1.18946e-17
4723.99553 1.15912e-17
4726.00245 1.06227e-17
4727.99927 9.16500e-18
4729.99611 9.03758e-18
4732.00302 1.04903e-17
4733.99985 1.21860e-17
4735.99668 1.19413e-17
4738.00359 1.15062e-17
4740.00043 1.21962e-17
4741.99725 1.28206e-17
4744.00417 1.30844e-17
4746.00100 1.28096e-17
4747.99783 1.18283e-17
4750.00475 1.08030e-17
4752.00157 1.04470e-17
4753.99841 1.09980e-17
4756.00532 1.15432e-17
4758.00215 1.17378e-17
4759.99898 1.20354e-17
4761.99581 1.22834e-17
4764.00273 1.22441e-17
4765.99955 1.19303e-17
4767.99639 1.23331e-17
4770.00330 1.28897e-17
4772.00013 1.23430e-17
4773.99696 1.23322e-17
4776.00387 1.24914e-17
4778.00070 1.15413e-17
4779.99753 1.14069e-17
4782.00445 1.23621e-17
4784.00128 1.32626e-17
4785.99811 1.33004e-17
4788.00502 1.26780e-17
4790.00185 1.21266e-17
4791.99868 1.19597e-17
4793.99551 1.20498e-17
4796.00243 1.22780e-17
4797.99926 1.31410e-17
4799.99609 1.37052e-17
4802.00300 1.33162e-17
4803.99983 1.34363e-17
4805.99666 1.37571e-17
4808.00358 1.35168e-17
4810.00041 1.29223e-17
4811.99724 1.21482e-17
4814.00415 1.16537e-17
4816.00098 1.22365e-17
4817.99781 1.26509e-17
4820.00473 1.22690e-17
4822.00156 1.25571e-17
4823.99839 1.30872e-17
4825.99522 1.33429e-17
4828.00213 1.36402e-17
4829.99896 1.37433e-17
4831.99579 1.34883e-17
4834.00271 1.30714e-17
4835.99954 1.30951e-17
4837.99637 1.35412e-17
4840.00328 1.36342e-17
4842.00011 1.31431e-17
4843.99694 1.25224e-17
4846.00386 1.25423e-17
4848.00069 1.28788e-17
4849.99752 1.29207e-17
4852.00443 1.23421e-17
4854.00126 1.18942e-17
4855.99809 1.21661e-17
4858.00501 1.30912e-17
4860.00184 1.36578e-17
4861.99867 1.36325e-17
4863.99550 1.34625e-17
4866.00241 1.31009e-17
4867.99924 1.28176e-17
4869.99608 1.29185e-17
4872.00299 1.30125e-17
4873.99982 1.33294e-17
4875.99665 1.39994e-17
4878.00356 1.36265e-17
4880.00040 1.28440e-17
4881.99723 1.28826e-17
4884.00414 1.31572e-17
4886.00097 1.32128e-17
4887.99780 1.32684e-17
4890.00472 1.33239e-17
4892.00155 1.33794e-17
4893.99838 1.34350e-17
4895.99520 1.34905e-17
4898.00212 1.35460e-17
4899.99895 1.36015e-17
4901.99578 1.36569e-17
4904.00270 1.37124e-17
4905.99952 1.37679e-17
4907.99636 1.38233e-17
4910.00327 1.38787e-17
4912.00010 1.39342e-17
4913.99693 1.39896e-17
4916.00384 1.40450e-17
4918.00068 1.41003e-17
4919.99750 1.41557e-17
4922.00442 1.42111e-17
4924.00125 1.35764e-17
4925.99808 1.35676e-17
4928.00500 1.35390e-17
4930.00182 1.33960e-17
4931.99866 1.38628e-17
4933.99548 1.38278e-17
4936.00240 1.32822e-17
4937.99923 1.34446e-17
4939.99606 1.40547e-17
4942.00298 1.43256e-17
4943.99980 1.37200e-17
4945.99664 1.33701e-17
4948.00355 1.33769e-17
4950.00038 1.30843e-17
4951.99721 1.33420e-17
4954.00412 1.40171e-17
4956.00095 1.42420e-17
4957.99778 1.37233e-17
4960.00470 1.32514e-17
4962.00153 1.36722e-17
4963.99836 1.40585e-17
4966.00527 1.41309e-17
4968.00210 1.41226e-17
4969.99893 1.40958e-17
4971.99576 1.41622e-17
4974.00268 1.42350e-17
4975.99951 1.37660e-17
4977.99634 1.32341e-17
4980.00325 1.33064e-17
4982.00008 1.38401e-17
4983.99691 1.38821e-17
4986.00383 1.39241e-17
4988.00066 1.39661e-17
4989.99749 1.40081e-17
4992.00440 1.40501e-17
4994.00123 1.40920e-17
4995.99806 1.41340e-17
4998.00498 1.41759e-17
5000.00181 1.42179e-17
5001.99864 1.42598e-17
5003.99547 1.43017e-17
5006.00238 1.43437e-17
5007.99921 1.43856e-17
5009.99604 1.44275e-17
5012.00296 1.44694e-17
5013.99979 1.45113e-17
5015.99662 1.45531e-17
5018.00353 1.45950e-17
5020.00036 1.46369e-17
5021.99719 1.45323e-17
5024.00411 1.42569e-17
5026.00094 1.37308e-17
5027.99777 1.34224e-17
5030.00468 1.39117e-17
5032.00151 1.40180e-17
5033.99834 1.41244e-17
5035.99518 1.42307e-17
5038.00209 1.43370e-17
5039.99892 1.44433e-17
5041.99575 1.45496e-17
5044.00266 1.46558e-17
5045.99950 1.47621e-17
5047.99632 1.48682e-17
5050.00324 1.49744e-17
5052.00007 1.50806e-17
5053.99690 1.51867e-17
5056.00382 1.52928e-17
5058.00065 1.53990e-17
5059.99748 1.55050e-17
5062.00439 1.56111e-17
5064.00122 1.57171e-17
5065.99805 1.58231e-17
5068.00497 1.59291e-17
5070.00180 1.60215e-17
5071.99863 1.55586e-17
5073.99545 1.47148e-17
5076.00237 1.41354e-17
5077.99920 1.42337e-17
5079.99603 1.46509e-17
5082.00295 1.49603e-17
5083.99977 1.49353e-17
5085.99661 1.47115e-17
5088.00352 1.46083e-17
5090.00035 1.46232e-17
5091.99718 1.43126e-17
5094.00409 1.44915e-17
5096.00093 1.52754e-17
5097.99775 1.54658e-17
5100.00467 1.51063e-17
5102.00150 1.46599e-17
5103.99833 1.45486e-17
5105.99516 1.49976e-17
5108.00207 1.55646e-17
5109.99891 1.54473e-17
5111.99573 1.52093e-17
5114.00265 1.52382e-17
5115.99948 1.53632e-17
5117.99631 1.53513e-17
5120.00323 1.52851e-17
5122.00005 1.54265e-17
5123.99689 1.54640e-17
5126.00380 1.54831e-17
5128.00063 1.57961e-17
5129.99746 1.60658e-17
5132.00437 1.61282e-17
5134.00120 1.60412e-17
5135.99803 1.58525e-17
5138.00495 1.57202e-17
5140.00178 1.57734e-17
5141.99861 1.59067e-17
5143.99544 1.58541e-17
5146.00235 1.56021e-17
5147.99918 1.59222e-17
5149.99601 1.64609e-17
5152.00293 1.65325e-17
5153.99976 1.62956e-17
5155.99659 1.62491e-17
5158.00350 1.66116e-17
5160.00033 1.67697e-17
5161.99716 1.66696e-17
5164.00408 1.64889e-17
5166.00091 1.62635e-17
5167.99774 1.65800e-17
5170.00465 1.73269e-17
5172.00148 1.70679e-17
5173.99831 1.66232e-17
5176.00523 1.68781e-17
5178.00206 1.73650e-17
5179.99889 1.75389e-17
5181.99572 1.72969e-17
5184.00263 1.71488e-17
5185.99946 1.71115e-17
5187.99629 1.71847e-17
5190.00321 1.74871e-17
5192.00004 1.78412e-17
5193.99687 1.77732e-17
5196.00378 1.69257e-17
5198.00061 1.68801e-17
5199.99744 1.78329e-17
5202.00436 1.82874e-17
5204.00119 1.82110e-17
5205.99802 1.80637e-17
5207.99485 1.82419e-17
5210.00176 1.81613e-17
5211.99859 1.79947e-17
5213.99543 1.83751e-17
5216.00234 1.85686e-17
5217.99917 1.83546e-17
5219.99600 1.80704e-17
5222.00291 1.78852e-17
5223.99975 1.77825e-17
5225.99657 1.77276e-17
5228.00349 1.80540e-17
5230.00032 1.83251e-17
5231.99715 1.80172e-17
5234.00407 1.77207e-17
5236.00089 1.78596e-17
5237.99773 1.84526e-17
5240.00464 1.90372e-17
5242.00147 1.93775e-17
5243.99830 1.92708e-17
5246.00522 1.82533e-17
5248.00205 1.78547e-17
5249.99887 1.89755e-17
5251.99570 1.95512e-17
5254.00262 1.91859e-17
5255.99945 1.86358e-17
5257.99628 1.89821e-17
5260.00320 1.93741e-17
5262.00002 1.90439e-17
5263.99685 1.86803e-17
5266.00377 1.85854e-17
5268.00060 1.87293e-17
5269.99743 1.88391e-17
5272.00434 1.88761e-17
5274.00118 1.88706e-17
5275.99800 1.88346e-17
5278.00492 1.87672e-17
5280.00175 1.88055e-17
5281.99858 1.91668e-17
5283.99541 1.96014e-17
5286.00232 1.99143e-17
5287.99916 2.00766e-17
5289.99598 1.96716e-17
5292.00290 1.91389e-17
5293.99973 1.94186e-17
5295.99656 1.96198e-17
5298.00348 1.94538e-17
5300.00030 1.94164e-17
5301.99714 1.94390e-17
5304.00405 1.96037e-17
5306.00088 1.99146e-17
5307.99771 1.93710e-17
5310.00462 1.87828e-17
5312.00145 1.94450e-17
5313.99828 1.96145e-17
5315.99511 1.95914e-17
5318.00203 2.04328e-17
5319.99886 2.06719e-17
5321.99569 2.01456e-17
5324.00260 1.96490e-17
5325.99943 1.98129e-17
5327.99626 2.02423e-17
5330.00318 2.03357e-17
5332.00001 2.03972e-17
5333.99684 2.03428e-17
5336.00375 2.01012e-17
5338.00058 2.00491e-17
5339.99741 2.02986e-17
5342.00433 2.06629e-17
5344.00116 2.07303e-17
5345.99799 2.06351e-17
5348.00490 2.05807e-17
5350.00173 2.04730e-17
5351.99856 2.03390e-17
5353.99539 2.03426e-17
5356.00231 2.07165e-17
5357.99914 2.12348e-17
5359.99597 2.15290e-17
5362.00288 2.13666e-17
5363.99971 2.10365e-17
5365.99654 2.08420e-17
5368.00346 2.08252e-17
5370.00029 2.07509e-17
5371.99712 2.07078e-17
5374.00403 2.10749e-17
5376.00086 2.12296e-17
5377.99770 2.10643e-17
5380.00461 2.11327e-17
5382.00144 2.12930e-17
5383.99827 2.14805e-17
5385.99510 2.16717e-17
5388.00202 2.10400e-17
5389.99884 2.00458e-17
5391.99568 1.99634e-17
5394.00259 2.06038e-17
5395.99942 2.14893e-17
5397.99625 2.21555e-17
5400.00316 2.22661e-17
5402.00000 2.18645e-17
5403.99682 2.13517e-17
5406.00374 2.13789e-17
5408.00057 2.18587e-17
5409.99740 2.22820e-17
5412.00432 2.24208e-17
5414.00114 2.23818e-17
5415.99798 2.23081e-17
5418.00489 2.19710e-17
5420.00172 2.15791e-17
5421.99855 2.13653e-17
5423.99538 2.10915e-17
5426.00230 2.10616e-17
5427.99912 2.14957e-17
5429.99595 2.19475e-17
5432.00287 2.22607e-17
5433.99970 2.23342e-17
5435.99653 2.19594e-17
5438.00344 2.14876e-17
5440.00027 2.13275e-17
5441.99710 2.15611e-17
5444.00402 2.20662e-17
5446.00085 2.25712e-17
5447.99768 2.27684e-17
5450.00459 2.24824e-17
5452.00142 2.19766e-17
5453.99825 2.18618e-17
5456.00517 2.18723e-17
5458.00200 2.17710e-17
5459.99883 2.16892e-17
5461.99566 2.17251e-17
5464.00257 2.19327e-17
5465.99941 2.22364e-17
5467.99623 2.21102e-17
5470.00315 2.17170e-17
5471.99998 2.17491e-17
5473.99681 2.18130e-17
5476.00373 2.16847e-17
5478.00055 2.14973e-17
5479.99739 2.13170e-17
5482.00430 2.13414e-17
5484.00113 2.16767e-17
5485.99796 2.18068e-17
5488.00487 2.16450e-17
5490.00170 2.14616e-17
5491.99853 2.13888e-17
5493.99536 2.11672e-17
5496.00228 2.06177e-17
5497.99911 2.04319e-17
5499.99594 2.07772e-17
5502.00285 2.12831e-17
5503.99968 2.13066e-17
5505.99651 2.09099e-17
5508.00343 2.05467e-17
5510.00026 2.05221e-17
5511.99709 2.06596e-17
5514.00400 2.06733e-17
5516.00083 2.05935e-17
5517.99766 2.05149e-17
5520.00458 2.05338e-17
5522.00141 2.06800e-17
5523.99824 2.07654e-17
5525.99507 2.06325e-17
5528.00198 2.03418e-17
5529.99881 2.00785e-17
5531.99564 1.98926e-17
5534.00256 1.96160e-17
5535.99939 1.97685e-17
5537.99622 2.03523e-17
5540.00313 2.04456e-17
5541.99996 1.95708e-17
5543.99680 1.82638e-17
5546.00371 1.78501e-17
5548.00054 1.82954e-17
5549.99737 1.89140e-17
5552.00428 1.90179e-17
5554.00111 1.91998e-17
5555.99795 1.96208e-17
5558.00486 1.97657e-17
5560.00169 1.97323e-17
5561.99852 1.96242e-17
5563.99535 1.94275e-17
5566.00227 1.90512e-17
5567.99909 1.88022e-17
5569.99593 1.90266e-17
5572.00284 1.89581e-17
5573.99967 1.87572e-17
5575.99650 1.89697e-17
5578.00341 1.85753e-17
5580.00025 1.78701e-17
5581.99707 1.77539e-17
5584.00399 1.77568e-17
5586.00082 1.76848e-17
5587.99765 1.76218e-17
5590.00457 1.76377e-17
5592.00139 1.76732e-17
5593.99823 1.76573e-17
5595.99505 1.76747e-17
5598.00197 1.77861e-17
5599.99880 1.79199e-17
5601.99563 1.78000e-17
5604.00255 1.76171e-17
5605.99937 1.76267e-17
5607.99620 1.77445e-17
5610.00312 1.78468e-17
5611.99995 1.78382e-17
5613.99678 1.77121e-17
5616.00369 1.76168e-17
5618.00052 1.76489e-17
5619.99735 1.77148e-17
5622.00427 1.75379e-17
5624.00110 1.70829e-17
5625.99793 1.67294e-17
5628.00484 1.69376e-17
5630.00167 1.74012e-17
5631.99850 1.70870e-17
5633.99533 1.66399e-17
5636.00225 1.68033e-17
5637.99908 1.75674e-17
5639.99591 1.74950e-17
5642.00282 1.65859e-17
5643.99965 1.64341e-17
5645.99648 1.68242e-17
5648.00340 1.71332e-17
5650.00023 1.69697e-17
5651.99706 1.67915e-17
5654.00398 1.67957e-17
5656.00080 1.67869e-17
5657.99763 1.66364e-17
5660.00455 1.65785e-17
5662.00138 1.68966e-17
5663.99821 1.70925e-17
5666.00512 1.70495e-17
5668.00195 1.70267e-17
5669.99878 1.72911e-17
5671.99561 1.73805e-17
5674.00253 1.68463e-17
5675.99936 1.65535e-17
5677.99619 1.66579e-17
5680.00310 1.67684e-17
5681.99993 1.64932e-17
5683.99676 1.63968e-17
5686.00368 1.69315e-17
5688.00051 1.71725e-17
5689.99734 1.70091e-17
5692.00425 1.67703e-17
5694.00108 1.66764e-17
5695.99791 1.66415e-17
5698.00483 1.65698e-17
5700.00166 1.66106e-17
5701.99849 1.67723e-17
5703.99532 1.68755e-17
5706.00223 1.66106e-17
5707.99906 1.62898e-17
5709.99590 1.62372e-17
5712.00281 1.64060e-17
5713.99964 1.67788e-17
5715.99647 1.71467e-17
5718.00338 1.71482e-17
5720.00022 1.71342e-17
5721.99705 1.71436e-17
5724.00396 1.67154e-17
5726.00079 1.63384e-17
5727.99762 1.65203e-17
5730.00454 1.72710e-17
5732.00136 1.75308e-17
5733.99820 1.71301e-17
5736.00511 1.69290e-17
5738.00194 1.69943e-17
5739.99877 1.70677e-17
5741.99560 1.69299e-17
5744.00252 1.71649e-17
5745.99934 1.75549e-17
5747.99618 1.74238e-17
5750.00309 1.73123e-17
5751.99992 1.74063e-17
5753.99675 1.74521e-17
5756.00366 1.71711e-17
5758.00050 1.67714e-17
5759.99732 1.66470e-17
5762.00424 1.67211e-17
5764.00107 1.68702e-17
5765.99790 1.70287e-17
5768.00482 1.72679e-17
5770.00164 1.74892e-17
5771.99848 1.75511e-17
5773.99530 1.74508e-17
5776.00222 1.74885e-17
5777.99905 1.76935e-17
5779.99588 1.72972e-17
5782.00280 1.68102e-17
5783.99962 1.69461e-17
5785.99645 1.75419e-17
5788.00337 1.79568e-17
5790.00020 1.78790e-17
5791.99703 1.78494e-17
5794.00394 1.77267e-17
5796.00077 1.73605e-17
5797.99760 1.70175e-17
5800.00452 1.69144e-17
5802.00135 1.71999e-17
5803.99818 1.78657e-17
5805.99501 1.81889e-17
5808.00192 1.79430e-17
5809.99875 1.77661e-17
5811.99558 1.78459e-17
5814.00250 1.79863e-17
5815.99933 1.78268e-17
5817.99616 1.77169e-17
5820.00307 1.77787e-17
5821.99990 1.77690e-17
5823.99673 1.78733e-17
5826.00365 1.81644e-17
5828.00048 1.84561e-17
5829.99731 1.82498e-17
5832.00422 1.78300e-17
5834.00105 1.78731e-17
5835.99788 1.77136e-17
5838.00480 1.75211e-17
5840.00163 1.79127e-17
5841.99846 1.81759e-17
5843.99529 1.81824e-17
5846.00220 1.81980e-17
5847.99903 1.79379e-17
5849.99586 1.75374e-17
5852.00278 1.73992e-17
5853.99961 1.77779e-17
5855.99644 1.84082e-17
5858.00335 1.87753e-17
5860.00018 1.85472e-17
5861.99701 1.81050e-17
5864.00393 1.79259e-17
5866.00076 1.78422e-17
5867.99759 1.77041e-17
5870.00450 1.75883e-17
5872.00133 1.79099e-17
5873.99816 1.83488e-17
5876.00508 1.85563e-17
5878.00191 1.87449e-17
5879.99874 1.87395e-17
5881.99557 1.84075e-17
5884.00248 1.79461e-17
5885.99932 1.76156e-17
5887.99614 1.74658e-17
5890.00306 1.72588e-17
5891.99989 1.72719e-17
5893.99672 1.75188e-17
5896.00364 1.75277e-17
5898.00047 1.74924e-17
5899.99730 1.76349e-17
5902.00421 1.79005e-17
5904.00104 1.78674e-17
5905.99787 1.76291e-17
5908.00479 1.77378e-17
5910.00161 1.74589e-17
5911.99845 1.69959e-17
5913.99527 1.73998e-17
5916.00219 1.79839e-17
5917.99902 1.81544e-17
5919.99585 1.78871e-17
5922.00277 1.75954e-17
5923.99959 1.74076e-17
5925.99643 1.72607e-17
5928.00334 1.76890e-17
5930.00017 1.80760e-17
5931.99700 1.75520e-17
5934.00391 1.73169e-17
5936.00075 1.73838e-17
5937.99757 1.70895e-17
5940.00449 1.67546e-17
5942.00132 1.66892e-17
5943.99815 1.68730e-17
5946.00507 1.66881e-17
5948.00189 1.62109e-17
5949.99873 1.60461e-17
5951.99555 1.69091e-17
5954.00247 1.77925e-17
5955.99930 1.76228e-17
5957.99613 1.70751e-17
5960.00305 1.66147e-17
5961.99987 1.64875e-17
5963.99670 1.67640e-17
5966.00362 1.69598e-17
5968.00045 1.67064e-17
5969.99728 1.62476e-17
5972.00419 1.60786e-17
5974.00102 1.63856e-17
5975.99785 1.67536e-17
5978.00477 1.68941e-17
5980.00160 1.66767e-17
5981.99843 1.61804e-17
5983.99526 1.59496e-17
5986.00217 1.61361e-17
5987.99900 1.62549e-17
5989.99583 1.61654e-17
5992.00275 1.58884e-17
5993.99958 1.55654e-17
5995.99641 1.55750e-17
5998.00332 1.61124e-17
6000.00015 1.69239e-17
6001.99698 1.68206e-17
6004.00390 1.58615e-17
6006.00073 1.52861e-17
6007.99756 1.54455e-17
6010.00447 1.58421e-17
6012.00130 1.57419e-17
6013.99813 1.56940e-17
6015.99496 1.58027e-17
6018.00188 1.57305e-17
6019.99871 1.54375e-17
6021.99554 1.51998e-17
6024.00245 1.52603e-17
6025.99928 1.51904e-17
6027.99611 1.50496e-17
6030.00303 1.51120e-17
6031.99986 1.52077e-17
6033.99669 1.53191e-17
6036.00360 1.54826e-17
6038.00043 1.55986e-17
6039.99726 1.56020e-17
6042.00418 1.55473e-17
6044.00101 1.56664e-17
6045.99784 1.57215e-17
6048.00475 1.54381e-17
6050.00158 1.49516e-17
6051.99841 1.47412e-17
6053.99525 1.50670e-17
6056.00216 1.55545e-17
6057.99899 1.56746e-17
6059.99582 1.52792e-17
6062.00273 1.48680e-17
6063.99957 1.47721e-17
6065.99639 1.48435e-17
6068.00331 1.44857e-17
6070.00014 1.40550e-17
6071.99697 1.39814e-17
6074.00389 1.42930e-17
6076.00072 1.48846e-17
6077.99755 1.54118e-17
6080.00446 1.54571e-17
6082.00129 1.52995e-17
6083.99812 1.51846e-17
6086.00504 1.50895e-17
6088.00186 1.50151e-17
6089.99870 1.49410e-17
6091.99552 1.48421e-17
6094.00244 1.47080e-17
6095.99927 1.46889e-17
6097.99610 1.48926e-17
6100.00302 1.46791e-17
6101.99984 1.43524e-17
6103.99668 1.46117e-17
6106.00359 1.44751e-17
6108.00042 1.38168e-17
6109.99725 1.33559e-17
6112.00416 1.37790e-17
6114.00100 1.45302e-17
6115.99782 1.46461e-17
6118.00474 1.44184e-17
6120.00157 1.41749e-17
6121.99840 1.41177e-17
6123.99523 1.42926e-17
6126.00214 1.45721e-17
6127.99898 1.47180e-17
6129.99580 1.44606e-17
6132.00272 1.42657e-17
6133.99955 1.44887e-17
6135.99638 1.45328e-17
6138.00330 1.40745e-17
6140.00012 1.33748e-17
6141.99695 1.33397e-17
6144.00387 1.36506e-17
6146.00070 1.38355e-17
6147.99753 1.40950e-17
6150.00444 1.42577e-17
6152.00127 1.42426e-17
6153.99810 1.42754e-17
6156.00502 1.41995e-17
6158.00185 1.39736e-17
6159.99868 1.38672e-17
6161.99551 1.39331e-17
6164.00242 1.40863e-17
6165.99925 1.41738e-17
6167.99608 1.41223e-17
6170.00300 1.38941e-17
6171.99983 1.35372e-17
6173.99666 1.35450e-17
6176.00357 1.38864e-17
6178.00040 1.39881e-17
6179.99723 1.37726e-17
6182.00415 1.36291e-17
6184.00098 1.39845e-17
6185.99781 1.40722e-17
6188.00472 1.38876e-17
6190.00155 1.40542e-17
6191.99838 1.43443e-17
6193.99521 1.44210e-17
6196.00213 1.41842e-17
6197.99896 1.42125e-17
6199.99579 1.43003e-17
6202.00270 1.39143e-17
6203.99953 1.34006e-17
6205.99636 1.30912e-17
6208.00328 1.31312e-17
6210.00011 1.34153e-17
6211.99694 1.36921e-17
6214.00385 1.37179e-17
6216.00068 1.34141e-17
6217.99752 1.31267e-17
6220.00443 1.31862e-17
6222.00126 1.34223e-17
6223.99809 1.37655e-17
6226.00500 1.40752e-17
6228.00184 1.39986e-17
6229.99866 1.39721e-17
6231.99550 1.42217e-17
6234.00241 1.40670e-17
6235.99924 1.37341e-17
6237.99607 1.37476e-17
6240.00298 1.43604e-17
6241.99982 1.45323e-17
6243.99664 1.39076e-17
6246.00356 1.36553e-17
6248.00039 1.37129e-17
6249.99722 1.36850e-17
6252.00414 1.33834e-17
6254.00096 1.31236e-17
6255.99780 1.31901e-17
6258.00471 1.35457e-17
6260.00154 1.37596e-17
6261.99837 1.36203e-17
6264.00529 1.33355e-17
6266.00211 1.33471e-17
6267.99894 1.36424e-17
6269.99577 1.37942e-17
6272.00269 1.38265e-17
6273.99952 1.37415e-17
6275.99635 1.35120e-17
6278.00327 1.33646e-17
6280.00009 1.33571e-17
6281.99692 1.33899e-17
6284.00384 1.34573e-17
6286.00067 1.34721e-17
6287.99750 1.34394e-17
6290.00441 1.38536e-17
6292.00125 1.43618e-17
6293.99807 1.43008e-17
6296.00499 1.38194e-17
6298.00182 1.34827e-17
6299.99865 1.36421e-17
6301.99548 1.36750e-17
6304.00239 1.36950e-17
6305.99923 1.39895e-17
6307.99605 1.41960e-17
6310.00297 1.42868e-17
6311.99980 1.43229e-17
6313.99663 1.41646e-17
6316.00355 1.40541e-17
6318.00037 1.41220e-17
6319.99720 1.40141e-17
6322.00412 1.38130e-17
6324.00095 1.38529e-17
6325.99778 1.44525e-17
6328.00469 1.48805e-17
6330.00152 1.47032e-17
6331.99835 1.45197e-17
6333.99518 1.46546e-17
6336.00210 1.49147e-17
6337.99893 1.46978e-17
6339.99576 1.45434e-17
6342.00267 1.46895e-17
6343.99950 1.46585e-17
6345.99633 1.48016e-17
6348.00325 1.52025e-17
6350.00008 1.54376e-17
6351.99691 1.52791e-17
6354.00382 1.49677e-17
6356.00065 1.50020e-17
6357.99748 1.51094e-17
6360.00440 1.51407e-17
6362.00123 1.51923e-17
6363.99806 1.51848e-17
6366.00497 1.51341e-17
6368.00180 1.51079e-17
6369.99863 1.49999e-17
6371.99546 1.47675e-17
6374.00238 1.45228e-17
6375.99921 1.46310e-17
6377.99604 1.50082e-17
6380.00295 1.53133e-17
6381.99978 1.54703e-17
6383.99661 1.56202e-17
6386.00353 1.58484e-17
6388.00036 1.57939e-17
6389.99719 1.55560e-17
6392.00410 1.54387e-17
6394.00093 1.55209e-17
6395.99777 1.54601e-17
6398.00468 1.51105e-17
6400.00151 1.51415e-17
6401.99834 1.53428e-17
6403.99517 1.54267e-17
6406.00209 1.58012e-17
6407.99891 1.59127e-17
6409.99575 1.56233e-17
6412.00266 1.60841e-17
6413.99949 1.63653e-17
6415.99632 1.59473e-17
6418.00323 1.61203e-17
6420.00007 1.66689e-17
6421.99689 1.68730e-17
6424.00381 1.62774e-17
6426.00064 1.54700e-17
6427.99747 1.50961e-17
6430.00439 1.52767e-17
6432.00121 1.57537e-17
6433.99805 1.59249e-17
6436.00496 1.52566e-17
6438.00179 1.47101e-17
6439.99862 1.49571e-17
6441.99545 1.57433e-17
6444.00236 1.61655e-17
6445.99919 1.61122e-17
6447.99602 1.62230e-17
6450.00294 1.62020e-17
6451.99977 1.60489e-17
6453.99660 1.60126e-17
6456.00351 1.56448e-17
6458.00034 1.52718e-17
6459.99717 1.55441e-17
6462.00409 1.58770e-17
6464.00092 1.57636e-17
6465.99775 1.53083e-17
6468.00466 1.57931e-17
6470.00149 1.65830e-17
6471.99832 1.64239e-17
6474.00524 1.61608e-17
6476.00207 1.61019e-17
6477.99890 1.60030e-17
6479.99573 1.54395e-17
6482.00264 1.49808e-17
6483.99947 1.52633e-17
6485.99630 1.58365e-17
6488.00322 1.60791e-17
6490.00005 1.58278e-17
6491.99688 1.58351e-17
6494.00380 1.61116e-17
6496.00062 1.62932e-17
6497.99745 1.60928e-17
6500.00437 1.58373e-17
6502.00120 1.57676e-17
6503.99803 1.55767e-17
6506.00494 1.53771e-17
6508.00177 1.53604e-17
6509.99860 1.55474e-17
6511.99543 1.55028e-17
6514.00235 1.52153e-17
6515.99918 1.53165e-17
6517.99601 1.53945e-17
6520.00292 1.52734e-17
6521.99975 1.53766e-17
6523.99658 1.55531e-17
6526.00350 1.56158e-17
6528.00033 1.55547e-17
6529.99716 1.55678e-17
6532.00407 1.56664e-17
6534.00090 1.56347e-17
6535.99773 1.53050e-17
6538.00465 1.49742e-17
6540.00148 1.51094e-17
6541.99831 1.52356e-17
6543.99514 1.51786e-17
6546.00205 1.51363e-17
6547.99888 1.51386e-17
6549.99572 1.51528e-17
6552.00263 1.51646e-17
6553.99946 1.53655e-17
6555.99629 1.54600e-17
6558.00320 1.51105e-17
6560.00004 1.48205e-17
6561.99686 1.48601e-17
6564.00378 1.50850e-17
6566.00061 1.49102e-17
6567.99744 1.45904e-17
6570.00436 1.46297e-17
6572.00118 1.48640e-17
6573.99802 1.54708e-17
6576.00493 1.62354e-17
6578.00176 1.58686e-17
6579.99859 1.49698e-17
6581.99542 1.45785e-17
6584.00234 1.46844e-17
6585.99916 1.50667e-17
6587.99600 1.53223e-17
6590.00291 1.52916e-17
6591.99974 1.52608e-17
6593.99657 1.52301e-17
6596.00348 1.51994e-17
6598.00032 1.51687e-17
6599.99714 1.51379e-17
6602.00406 1.51072e-17
6604.00089 1.50765e-17
6605.99772 1.50458e-17
6608.00464 1.50151e-17
6610.00146 1.49844e-17
6611.99830 1.49537e-17
6613.99512 1.49230e-17
6616.00204 1.48923e-17
6617.99887 1.48616e-17
6619.99570 1.48309e-17
6622.00261 1.48002e-17
6623.99944 1.47695e-17
6625.99627 1.47389e-17
6628.00319 1.47082e-17
6630.00002 1.46775e-17
6631.99685 1.46469e-17
6634.00376 1.46162e-17
6636.00059 1.45855e-17
6637.99742 1.45548e-17
6640.00434 1.45242e-17
6642.00117 1.44935e-17
6643.99800 1.44629e-17
6646.00491 1.44322e-17
6648.00174 1.44016e-17
6649.99857 1.43709e-17
6651.99540 1.42444e-17
6654.00232 1.38354e-17
6655.99915 1.33847e-17
6657.99598 1.32385e-17
6660.00289 1.32550e-17
6661.99972 1.32063e-17
6663.99655 1.32864e-17
6666.00347 1.34585e-17
6668.00030 1.35211e-17
6669.99713 1.32400e-17
6672.00404 1.30934e-17
6674.00087 1.34120e-17
6675.99770 1.37033e-17
6678.00462 1.37553e-17
6680.00145 1.35092e-17
6681.99828 1.29859e-17
6684.00519 1.27932e-17
6686.00202 1.31533e-17
6687.99885 1.34563e-17
6689.99568 1.34128e-17
6692.00260 1.31169e-17
6693.99943 1.29736e-17
6695.99626 1.31473e-17
6698.00317 1.35824e-17
6700.00000 1.40264e-17
6701.99683 1.39927e-17
6704.00375 1.34257e-17
6706.00058 1.28093e-17
6707.99741 1.26272e-17
6710.00432 1.27772e-17
6712.00115 1.27258e-17
6713.99798 1.26454e-17
6716.00490 1.27278e-17
6718.00173 1.29540e-17
6719.99856 1.29592e-17
6721.99539 1.28289e-17
6724.00230 1.28859e-17
6725.99914 1.27146e-17
6727.99597 1.25768e-17
6730.00288 1.29025e-17
6731.99971 1.28075e-17
6733.99654 1.23692e-17
6736.00345 1.22435e-17
6738.00029 1.24811e-17
6739.99711 1.26565e-17
6742.00403 1.24453e-17
6744.00086 1.24094e-17
6745.99769 1.24992e-17
6748.00461 1.23771e-17
6750.00143 1.19873e-17
6751.99827 1.17377e-17
6754.00518 1.18940e-17
6756.00201 1.19865e-17
6757.99884 1.18492e-17
6759.99567 1.16537e-17
6762.00259 1.18115e-17
6763.99941 1.20099e-17
6765.99625 1.19384e-17
6768.00316 1.18375e-17
6769.99999 1.17224e-17
6771.99682 1.16146e-17
6774.00373 1.16502e-17
6776.00057 1.18108e-17
6777.99739 1.18684e-17
6780.00431 1.15021e-17
6782.00114 1.11158e-17
6783.99797 1.11442e-17
6786.00489 1.16318e-17
6788.00171 1.20225e-17
6789.99855 1.19809e-17
6791.99537 1.16922e-17
6794.00229 1.14803e-17
6795.99912 1.15134e-17
6797.99595 1.16928e-17
6800.00286 1.17474e-17
6801.99969 1.15573e-17
6803.99652 1.12301e-17
6806.00344 1.09699e-17
6808.00027 1.09145e-17
6809.99710 1.10900e-17
6812.00401 1.15009e-17
6814.00084 1.17814e-17
6815.99767 1.15608e-17
6818.00459 1.13047e-17
6820.00142 1.12354e-17
6821.99825 1.12303e-17
6823.99508 1.09773e-17
6826.00199 1.07536e-17
6827.99882 1.09280e-17
6829.99565 1.10424e-17
6832.00257 1.11343e-17
6833.99940 1.14100e-17
6835.99623 1.16531e-17
6838.00314 1.17923e-17
6839.99997 1.18328e-17
6841.99680 1.17593e-17
6844.00372 1.14852e-17
6846.00055 1.14804e-17
6847.99738 1.14756e-17
6850.00429 1.14708e-17
6852.00112 1.14660e-17
6853.99795 1.14612e-17
6856.00487 1.14564e-17
6858.00170 1.14516e-17
6859.99853 1.14468e-17
6861.99536 1.14420e-17
6864.00227 1.14372e-17
6865.99910 1.14324e-17
6867.99593 1.14276e-17
6870.00285 1.14228e-17
6871.99968 1.14180e-17
6873.99651 1.14132e-17
6876.00342 1.14084e-17
6878.00025 1.14036e-17
6879.99708 1.13988e-17
6882.00400 1.13940e-17
6884.00083 1.13892e-17
6885.99766 1.13844e-17
6888.00457 1.13796e-17
6890.00140 1.13748e-17
6891.99823 1.13701e-17
6894.00515 1.13653e-17
6896.00198 1.13605e-17
6897.99881 1.13557e-17
6899.99564 1.13509e-17
6902.00256 1.13461e-17
6903.99939 1.13413e-17
6905.99621 1.13365e-17
6908.00313 1.13317e-17
6909.99996 1.13269e-17
6911.99679 1.13221e-17
6914.00370 1.13174e-17
6916.00054 1.13126e-17
6917.99736 1.13078e-17
6920.00428 1.13030e-17
6922.00111 1.12982e-17
6923.99794 1.12934e-17
6926.00486 1.12886e-17
6928.00168 1.12838e-17
6929.99852 1.12791e-17
6931.99534 1.12743e-17
6934.00226 1.12695e-17
6935.99909 1.12647e-17
6937.99592 1.10141e-17
6940.00284 1.09445e-17
6941.99966 1.11194e-17
6943.99650 1.13181e-17
6946.00341 1.12310e-17
6948.00024 1.09245e-17
6949.99707 1.07302e-17
6952.00398 1.10095e-17
6954.00082 1.11086e-17
6955.99764 1.07308e-17
6958.00456 1.05079e-17
6960.00139 1.05818e-17
6961.99822 1.07779e-17
6964.00514 1.07903e-17
6966.00196 1.07647e-17
6967.99880 1.07522e-17
6969.99562 1.06302e-17
6972.00254 1.08153e-17
6973.99937 1.11224e-17
6975.99620 1.08971e-17
6978.00311 1.08152e-17
6979.99994 1.10747e-17
6981.99677 1.12015e-17
6984.00369 1.09709e-17
6986.00052 1.06883e-17
6987.99735 1.08106e-17
6990.00426 1.08323e-17
6992.00109 1.06719e-17
6993.99792 1.06552e-17
6996.00484 1.09131e-17
6998.00167 1.12789e-17
6999.99850 1.15031e-17
7001.99533 1.17004e-17
7004.00224 1.16110e-17
7005.99907 1.10544e-17
7007.99590 1.07106e-17
7010.00282 1.05624e-17
7011.99965 1.03559e-17
7013.99648 1.03984e-17
7016.00339 1.05100e-17
7018.00022 1.05408e-17
7019.99705 1.09628e-17
7022.00397 1.12526e-17
7024.00080 1.09115e-17
7025.99763 1.04412e-17
7028.00454 1.04492e-17
7030.00137 1.10331e-17
7031.99820 1.14403e-17
7033.99503 1.14811e-17
7036.00195 1.12752e-17
7037.99878 1.10115e-17
7039.99561 1.08942e-17
7042.00252 1.09551e-17
7043.99935 1.09923e-17
7045.99618 1.07736e-17
7048.00310 1.03013e-17
7049.99993 9.88061e-18
7051.99676 9.75637e-18
7054.00367 1.00585e-17
7056.00050 1.07168e-17
7057.99734 1.11906e-17
7060.00425 1.13066e-17
7062.00108 1.13686e-17
7063.99791 1.13013e-17
7066.00482 1.11073e-17
7068.00166 1.09278e-17
7069.99848 1.08561e-17
7072.00540 1.07997e-17
7074.00223 1.06030e-17
7075.99906 1.04461e-17
7077.99589 1.04692e-17
7080.00280 1.06647e-17
7081.99964 1.08403e-17
7083.99646 1.09662e-17
7086.00338 1.10958e-17
7088.00021 1.10585e-17
7089.99704 1.10506e-17
7092.00395 1.12712e-17
7094.00078 1.12283e-17
7095.99761 1.09888e-17
7098.00453 1.08352e-17
7100.00136 1.06078e-17
7101.99819 1.02611e-17
7103.99502 9.93893e-18
7106.00193 9.98741e-18
7107.99876 1.02027e-17
7109.99559 1.02607e-17
7112.00251 1.02046e-17
7113.99934 1.03117e-17
7115.99617 1.07110e-17
7118.00309 1.10934e-17
7119.99991 1.12351e-17
7121.99674 1.11328e-17
7124.00366 1.10420e-17
7126.00049 1.10589e-17
7127.99732 1.11732e-17
7130.00423 1.13093e-17
7132.00107 1.12720e-17
7133.99789 1.09357e-17
7136.00481 1.03740e-17
7138.00164 1.01016e-17
7139.99847 1.00863e-17
7141.99530 9.66284e-18
7144.00221 9.53046e-18
7145.99905 9.93374e-18
7147.99587 1.02549e-17
7150.00279 1.03515e-17
7151.99962 1.03680e-17
7153.99645 1.05343e-17
7156.00336 1.06445e-17
7158.00019 1.06056e-17
7159.99702 1.05047e-17
7162.00394 1.03360e-17
7164.00077 1.00536e-17
7165.99760 9.68840e-18
7168.00451 9.63208e-18
7170.00134 9.80893e-18
7171.99817 9.84939e-18
7174.00509 9.77096e-18
7176.00192 9.61183e-18
7177.99875 9.50710e-18
7179.99558 9.93923e-18
7182.00249 1.03600e-17
7183.99932 1.00585e-17
7185.99615 9.63505e-18
7188.00307 9.40149e-18
7189.99990 9.31273e-18
7191.99673 9.11109e-18
7194.00364 8.87342e-18
7196.00047 8.81796e-18
7197.99730 9.01897e-18
7200.00422 9.37903e-18
7202.00105 9.69248e-18
7203.99788 9.74988e-18
7206.00479 9.56577e-18
7208.00162 9.36839e-18
7209.99845 9.49863e-18
7211.99528 9.75324e-18
7214.00220 9.83093e-18
7215.99903 9.68400e-18
7217.99586 9.53849e-18
7220.00277 9.57355e-18
7221.99960 9.72637e-18
7223.99643 9.79789e-18
7226.00335 9.75066e-18
7228.00018 9.78251e-18
7229.99701 9.84670e-18
7232.00392 9.87937e-18
7234.00075 9.89949e-18
7235.99759 1.00888e-17
7238.00450 1.02366e-17
7240.00133 9.87056e-18
7241.99816 9.39804e-18
7244.00507 9.32782e-18
7246.00191 9.79975e-18
7247.99873 9.95774e-18
7249.99557 9.61453e-18
7252.00248 9.30506e-18
7253.99931 9.25610e-18
7255.99614 9.27622e-18
7258.00305 9.09949e-18
7259.99989 9.25179e-18
7261.99671 9.58598e-18
7264.00363 9.63614e-18
7266.00046 9.74828e-18
7267.99729 9.79781e-18
7270.00420 9.53315e-18
7272.00103 9.35840e-18
7273.99786 9.38495e-18
7276.00478 9.48162e-18
7278.00161 9.50253e-18
7279.99844 9.38753e-18
7281.99527 9.17564e-18
7284.00218 8.97690e-18
7285.99901 8.99195e-18
7287.99584 9.27230e-18
7290.00276 9.53074e-18
7291.99959 9.61928e-18
7293.99642 9.61654e-18
7296.00333 9.81680e-18
7298.00016 9.75966e-18
7299.99699 9.37992e-18
7302.00391 9.62881e-18
7304.00074 1.00147e-17
7305.99757 9.96984e-18
7308.00448 9.68517e-18
7310.00132 9.41254e-18
7311.99814 9.26283e-18
7313.99497 9.12951e-18
7316.00189 9.13339e-18
7317.99872 9.24086e-18
7319.99555 9.19860e-18
7322.00246 8.98190e-18
7323.99930 8.82026e-18
7325.99612 9.02257e-18
7328.00304 9.32323e-18
7329.99987 9.42531e-18
7331.99670 9.27496e-18
7334.00361 9.31614e-18
7336.00044 9.56253e-18
7337.99727 9.61476e-18
7340.00419 9.45332e-18
7342.00102 9.24096e-18
7343.99785 9.12553e-18
7346.00476 8.86109e-18
7348.00159 8.51450e-18
7349.99842 8.33104e-18
7351.99525 8.18774e-18
7354.00217 8.15983e-18
7355.99900 8.36653e-18
7357.99583 8.59225e-18
7360.00274 8.70377e-18
7361.99957 8.74468e-18
7363.99640 8.97750e-18
7366.00332 9.28357e-18
7368.00015 9.37657e-18
7369.99698 9.14868e-18
7372.00389 8.91728e-18
7374.00072 8.93293e-18
7375.99755 8.87560e-18
7378.00447 8.48101e-18
7380.00130 7.82786e-18
7381.99813 7.48001e-18
7384.00504 7.41147e-18
7386.00187 7.43853e-18
7387.99870 7.59110e-18
7389.99554 7.69221e-18
7392.00245 7.79858e-18
7393.99928 8.33760e-18
7395.99611 8.82067e-18
7398.00302 8.82739e-18
7399.99986 8.54870e-18
7401.99668 8.35887e-18
7404.00360 8.44296e-18
7406.00043 8.62469e-18
7407.99726 8.62721e-18
7410.00418 8.22956e-18
7412.00100 7.43518e-18
7413.99784 6.80140e-18
7416.00475 6.65999e-18
7418.00158 6.85884e-18
7419.99841 6.86302e-18
7421.99524 6.93537e-18
7424.00216 7.75278e-18
7425.99898 8.08119e-18
7427.99582 7.84795e-18
7430.00273 7.99808e-18
7431.99956 8.20209e-18
7433.99639 8.09851e-18
7436.00330 7.64089e-18
7438.00014 7.31175e-18
7439.99696 7.19196e-18
7442.00388 7.04835e-18
7444.00071 6.81760e-18
7445.99754 6.59896e-18
7448.00445 6.50737e-18
7450.00128 6.42867e-18
7451.99811 6.44350e-18
7454.00503 6.67281e-18
7456.00186 7.03118e-18
7457.99869 7.25968e-18
7459.99552 7.23303e-18
7462.00243 7.26665e-18
7463.99926 7.32531e-18
7465.99609 7.24437e-18
7468.00301 7.00225e-18
7469.99984 6.88096e-18
7471.99667 6.95324e-18
7474.00358 6.73728e-18
7476.00041 6.34514e-18
7477.99724 6.06295e-18
7480.00416 6.00056e-18
7482.00099 6.07904e-18
7483.99782 6.20326e-18
7486.00473 6.37182e-18
7488.00156 6.52320e-18
7489.99839 6.63283e-18
7491.99522 6.73718e-18
7494.00214 6.80842e-18
7495.99897 6.76514e-18
7497.99580 6.53452e-18
7500.00271 6.29980e-18
7501.99954 6.18890e-18
7503.99637 6.15416e-18
7506.00329 5.99182e-18
7508.00012 5.81450e-18
7509.99695 5.96877e-18
7512.00386 6.05000e-18
7514.00069 5.98386e-18
7515.99752 6.16137e-18
7518.00444 6.43115e-18
7520.00127 6.77704e-18
7521.99810 7.29532e-18
7523.99493 7.74526e-18
7526.00184 7.80538e-18
7527.99867 7.38032e-18
7529.99550 7.10673e-18
7532.00242 7.01983e-18
7533.99925 6.75837e-18
7535.99608 6.32485e-18
7538.00299 5.91649e-18
7539.99982 5.80218e-18
7541.99665 6.09537e-18
7544.00357 6.29114e-18
7546.00040 6.17557e-18
7547.99723 6.56190e-18
7550.00414 7.14567e-18
7552.00097 7.12475e-18
7553.99780 7.10384e-18
7556.00472 7.08293e-18
7558.00155 7.06202e-18
7559.99838 7.04112e-18
7562.00529 7.02021e-18
7564.00212 6.99931e-18
7565.99895 6.97841e-18
7567.99579 6.95751e-18
7570.00270 6.93662e-18
7571.99953 6.91572e-18
7573.99636 6.89483e-18
7576.00327 6.87394e-18
7578.00011 6.85305e-18
7579.99693 6.83217e-18
7582.00385 6.81128e-18
7584.00068 6.79040e-18
7585.99751 6.76952e-18
7588.00443 6.74864e-18
7590.00125 6.72777e-18
7591.99809 6.70689e-18
7594.00500 6.68602e-18
7596.00183 6.66515e-18
7597.99866 6.64428e-18
7599.99549 6.62341e-18
7602.00241 6.60255e-18
7603.99923 6.58169e-18
7605.99607 6.56083e-18
7608.00298 6.53997e-18
7609.99981 6.51911e-18
7611.99664 6.49826e-18
7614.00355 6.47741e-18
7616.00039 6.45655e-18
7617.99721 6.43571e-18
7620.00413 6.41486e-18
7622.00096 6.39402e-18
7623.99779 6.37317e-18
7626.00470 6.35233e-18
7628.00153 6.33149e-18
7629.99836 6.31066e-18
7631.99519 6.28982e-18
7634.00211 6.26899e-18
7635.99894 6.24816e-18
7637.99577 6.22733e-18
7640.00268 6.20651e-18
7641.99951 6.18568e-18
7643.99634 6.16486e-18
7646.00326 6.14404e-18
7648.00009 6.12322e-18
7649.99692 6.10240e-18
7652.00383 6.08159e-18
7654.00066 6.06078e-18
7655.99749 6.03997e-18
7658.00441 6.01916e-18
7660.00124 5.99835e-18
7661.99807 5.97755e-18
7664.00498 5.95675e-18
7666.00181 5.93595e-18
7667.99864 5.91515e-18
7669.99547 5.89435e-18
7672.00239 5.87356e-18
7673.99922 5.85276e-18
7675.99605 5.83198e-18
7678.00296 5.81119e-18
7679.99979 5.79040e-18
7681.99662 6.17734e-18
7684.00354 6.33451e-18
7686.00037 6.17625e-18
7687.99720 6.00275e-18
7690.00411 5.82201e-18
7692.00094 5.62961e-18
7693.99777 5.49485e-18
7696.00469 5.52908e-18
7698.00152 5.59114e-18
7699.99835 5.48775e-18
7701.99518 5.47632e-18
7704.00209 5.41439e-18
7705.99892 4.99325e-18
7707.99575 4.57755e-18
7710.00267 4.62243e-18
7711.99950 5.17487e-18
7713.99633 5.43121e-18
7716.00324 5.34745e-18
7718.00007 5.35125e-18
7719.99690 5.64800e-18
7722.00382 5.84926e-18
7724.00065 5.69900e-18
7725.99748 5.93739e-18
7728.00439 6.30961e-18
7730.00122 6.24742e-18
7731.99805 5.72020e-18
7734.00497 5.03724e-18
7736.00180 4.54785e-18
7737.99863 4.34739e-18
7739.99546 4.12954e-18
7742.00238 3.76356e-18
7743.99920 3.65576e-18
7745.99604 3.79276e-18
7748.00295 4.03484e-18
7749.99978 4.32716e-18
7751.99661 4.76903e-18
7754.00352 5.27809e-18
7756.00036 5.50989e-18
7757.99718 5.48876e-18
7760.00410 5.47814e-18
7762.00093 5.75815e-18
7763.99776 5.89921e-18
7766.00468 5.68624e-18
7768.00150 5.36116e-18
7769.99834 4.90439e-18
7772.00525 4.45155e-18
7774.00208 4.23310e-18
7775.99891 3.88604e-18
7777.99574 3.57914e-18
7780.00266 3.87832e-18
7781.99948 4.48768e-18
7783.99632 4.97170e-18
7786.00323 5.10377e-18
7788.00006 5.23997e-18
7789.99689 5.47209e-18
7792.00380 5.61687e-18
7794.00064 5.58194e-18
7795.99746 5.42529e-18
7798.00438 5.22112e-18
7800.00121 4.77559e-18
7801.99804 4.31074e-18
7804.00495 4.10213e-18
7806.00178 3.83194e-18
7807.99861 3.54109e-18
7809.99544 3.51746e-18
7812.00236 4.00942e-18
7813.99919 4.75828e-18
7815.99602 5.23504e-18
7818.00293 4.99320e-18
7819.99976 4.77274e-18
7821.99659 5.21295e-18
7824.00351 5.65986e-18
7826.00034 5.65362e-18
7827.99717 5.20136e-18
7830.00408 4.85722e-18
7832.00091 4.74949e-18
7833.99774 4.72494e-18
7836.00466 4.54364e-18
7838.00149 4.21636e-18
7839.99832 4.03594e-18
7841.99515 4.41089e-18
7844.00206 4.76550e-18
7845.99889 4.74623e-18
7847.99572 4.71887e-18
7850.00264 4.91885e-18
7851.99947 5.19998e-18
7853.99630 5.15916e-18
7856.00321 5.38214e-18
7858.00004 5.77199e-18
7859.99687 5.46894e-18
7862.00379 4.78988e-18
7864.00062 4.37351e-18
7865.99745 4.60155e-18
7868.00436 4.71809e-18
7870.00119 4.39084e-18
7871.99802 3.96236e-18
7874.00494 3.95663e-18
7876.00177 4.20080e-18
7877.99860 4.21160e-18
7879.99543 4.54929e-18
7882.00234 5.09046e-18
7883.99917 5.36361e-18
7885.99600 5.78225e-18
7888.00292 5.88448e-18
7889.99975 5.13348e-18
7891.99658 4.50711e-18
7894.00349 4.31945e-18
7896.00032 4.33666e-18
7897.99716 4.31973e-18
7900.00407 4.28643e-18
7902.00090 4.36059e-18
7903.99773 4.53238e-18
7906.00464 4.68720e-18
7908.00148 4.72211e-18
7909.99830 4.66398e-18
7911.99514 4.74043e-18
7914.00205 5.07753e-18
7915.99888 5.46623e-18
7917.99571 5.54758e-18
7920.00262 5.35963e-18
7921.99945 5.56675e-18
7923.99628 5.72415e-18
7926.00320 5.48904e-18
7928.00003 5.29270e-18
7929.99686 5.17488e-18
7932.00377 5.01746e-18
7934.00061 4.71480e-18
7935.99743 4.45826e-18
7938.00435 4.35333e-18
7940.00118 4.30437e-18
7941.99801 4.45045e-18
7944.00493 4.75909e-18
7946.00175 4.94981e-18
7947.99859 4.69103e-18
7949.99541 4.34914e-18
7952.00233 4.69987e-18
7953.99916 5.16299e-18
7955.99599 5.41026e-18
7958.00291 5.54819e-18
7959.99973 5.20578e-18
7961.99657 4.66835e-18
7964.00348 4.58390e-18
7966.00031 4.74670e-18
7967.99714 4.83405e-18
7970.00405 4.65429e-18
7972.00089 4.31994e-18
7973.99771 3.98863e-18
7976.00463 3.81702e-18
7978.00146 3.98661e-18
7979.99829 4.36305e-18
7982.00520 4.64840e-18
7984.00203 4.65299e-18
7985.99886 4.69886e-18
7987.99569 5.12768e-18
7990.00261 5.65942e-18
7991.99944 5.93057e-18
7993.99627 5.73506e-18
7996.00318 5.21462e-18
7998.00001 4.79911e-18
7999.99684 4.68467e-18
8002.00376 4.43512e-18
8004.00059 4.25928e-18
8005.99742 4.31108e-18
8008.00433 4.18328e-18
8010.00116 3.98207e-18
8011.99799 3.96132e-18
8014.00491 4.21751e-18
8016.00174 4.37033e-18
8017.99857 4.28632e-18
8019.99540 4.39431e-18
8022.00231 4.94537e-18
8023.99914 5.60767e-18
8025.99597 5.57943e-18
8028.00289 5.17508e-18
8029.99972 4.83560e-18
8031.99655 4.67828e-18
8034.00346 4.60495e-18
8036.00029 4.47850e-18
8037.99712 4.26830e-18
8040.00404 4.26323e-18
8042.00087 4.42480e-18
8043.99770 4.42258e-18
8046.00461 4.36353e-18
8048.00144 4.33533e-18
8049.99827 4.33633e-18
8052.00519 4.37876e-18
8054.00202 4.55728e-18
8055.99885 4.92030e-18
8057.99568 5.18156e-18
8060.00259 5.12826e-18
8061.99942 4.74164e-18
8063.99625 4.23166e-18
8066.00317 3.87075e-18
8068.00000 3.76823e-18
8069.99683 3.59467e-18
8072.00374 3.47362e-18
8074.00057 3.66716e-18
8075.99741 4.01936e-18
8078.00432 4.30171e-18
8080.00115 4.24923e-18
8081.99798 3.60630e-18
8084.00489 2.43528e-18
8086.00173 1.23675e-18
8087.99855 9.18428e-19
8089.99539 1.61068e-18
8092.00230 2.79240e-18
8093.99913 3.61064e-18
8095.99596 3.94726e-18
8098.00287 3.93962e-18
8099.99970 3.59489e-18
8101.99653 3.26942e-18
8104.00345 3.19642e-18
8106.00028 3.24818e-18
8107.99711 3.47418e-18
8110.00402 3.78616e-18
8112.00085 3.91652e-18
8113.99768 4.15804e-18
8116.00460 4.61462e-18
8118.00143 4.95443e-18
8119.99826 4.90222e-18
8121.99509 4.49814e-18
8124.00200 4.08629e-18
8125.99883 3.86418e-18
8127.99566 3.76183e-18
8130.00258 3.55440e-18
8131.99941 3.32426e-18
8133.99624 3.35445e-18
8136.00316 3.84206e-18
8137.99998 4.23982e-18
8139.99681 4.29265e-18
8142.00373 4.18998e-18
8144.00056 4.34373e-18
8145.99739 4.50209e-18
8148.00430 4.24048e-18
8150.00114 4.29411e-18
8151.99796 4.63135e-18
8154.00488 4.72121e-18
8156.00171 4.48312e-18
8157.99854 4.06835e-18
8159.99537 3.71917e-18
8162.00228 3.58202e-18
8163.99911 3.47470e-18
8165.99594 3.20453e-18
8168.00286 2.95502e-18
8169.99969 3.20428e-18
8171.99652 3.90635e-18
8174.00343 3.78487e-18
8176.00026 3.60463e-18
8177.99709 4.20151e-18
8180.00401 4.65339e-18
8182.00084 4.74622e-18
8183.99767 4.59550e-18
8186.00458 4.29337e-18
8188.00141 4.13290e-18
8189.99824 3.97923e-18
8192.00516 3.11247e-18
8194.00199 2.31217e-18
8195.99882 2.29442e-18
8197.99565 2.81346e-18
8200.00257 3.05908e-18
8201.99939 2.79872e-18
8203.99623 2.69893e-18
8206.00314 2.74183e-18
8207.99997 2.84640e-18
8209.99680 3.07801e-18
8212.00371 3.50156e-18
8214.00055 3.99904e-18
8215.99737 4.31577e-18
8218.00429 4.43512e-18
8220.00112 4.47483e-18
8221.99795 4.55289e-18
8224.00486 4.48083e-18
8226.00169 4.31276e-18
8227.99852 4.27395e-18
8229.99535 4.25505e-18
8232.00227 4.06210e-18
8233.99910 3.64061e-18
8235.99593 3.42502e-18
8238.00284 3.47626e-18
8239.99967 3.50618e-18
8241.99650 3.18396e-18
8244.00342 2.89357e-18
8246.00025 3.10685e-18
8247.99708 3.25779e-18
8250.00399 3.49497e-18
8252.00082 4.10644e-18
8253.99765 4.55434e-18
8256.00457 4.71749e-18
8258.00140 4.78113e-18
8259.99823 4.97391e-18
8262.00515 5.06787e-18
8264.00197 4.85085e-18
8265.99880 4.59192e-18
8267.99563 4.46746e-18
8270.00255 4.37759e-18
8271.99938 3.90332e-18
8273.99621 3.23927e-18
8276.00312 2.82671e-18
8277.99995 2.97521e-18
8279.99678 3.21610e-18
8282.00370 3.32116e-18
8284.00053 3.79286e-18
8285.99736 4.69006e-18
8288.00427 5.56391e-18
8290.00110 5.69014e-18
8291.99793 5.45121e-18
8294.00485 5.28397e-18
8296.00168 5.21227e-18
8297.99851 5.16356e-18
8299.99534 5.04067e-18
8302.00225 4.78737e-18
8303.99908 4.40169e-18
8305.99591 3.92714e-18
8308.00283 3.47434e-18
8309.99966 3.33656e-18
8311.99649 3.57467e-18
8314.00340 3.96371e-18
8316.00023 4.10267e-18
8317.99706 4.27447e-18
8320.00398 5.03675e-18
8322.00081 5.90616e-18
8323.99764 6.30000e-18
8326.00455 6.01036e-18
8328.00138 5.76661e-18
8329.99821 5.28110e-18
8332.00513 4.14090e-18
8334.00196 3.75638e-18
8335.99879 4.17374e-18
8337.99562 4.51449e-18
8340.00253 4.17471e-18
8341.99936 3.62804e-18
8343.99619 3.63195e-18
8346.00311 4.13181e-18
8347.99994 4.68448e-18
8349.99677 4.93276e-18
8352.00368 5.06407e-18
8354.00051 5.12260e-18
8355.99734 5.18683e-18
8358.00426 5.50874e-18
8360.00109 6.01057e-18
8361.99792 6.44474e-18
8363.99475 6.57134e-18
8366.00166 6.13408e-18
8367.99849 5.34330e-18
8370.00541 4.98226e-18
8372.00224 5.03607e-18
8373.99907 5.15476e-18
8375.99590 5.02893e-18
8378.00281 4.77434e-18
8379.99964 4.56348e-18
8381.99647 4.44498e-18
8384.00339 4.51078e-18
8386.00022 4.82396e-18
8387.99705 5.35798e-18
8390.00396 5.80418e-18
8392.00079 6.15892e-18
8393.99762 6.66612e-18
8396.00454 6.84424e-18
8398.00137 6.57408e-18
8399.99820 6.22899e-18
8402.00511 6.18017e-18
8404.00194 6.12210e-18
8405.99878 5.48412e-18
8407.99560 4.81691e-18
8410.00252 4.58075e-18
8411.99935 4.81217e-18
8413.99618 5.01165e-18
8416.00310 5.01410e-18
8417.99992 5.07760e-18
8419.99676 5.71540e-18
8422.00367 6.81697e-18
8424.00050 7.78842e-18
8425.99733 7.97914e-18
8428.00424 7.79630e-18
8430.00108 7.87432e-18
8431.99791 7.85022e-18
8434.00482 7.58435e-18
8436.00165 7.12666e-18
8437.99848 6.57310e-18
8440.00540 6.12797e-18
8442.00223 5.93152e-18
8443.99906 5.91558e-18
8445.99588 5.84140e-18
8448.00280 5.67722e-18
8449.99963 5.82502e-18
8451.99646 6.16537e-18
8454.00338 6.50166e-18
8456.00020 6.89024e-18
8457.99703 7.70062e-18
8460.00395 8.77200e-18
8462.00078 9.16711e-18
8463.99761 8.95764e-18
8466.00452 8.56855e-18
8468.00135 8.34556e-18
8469.99819 8.37809e-18
8471.99502 8.46227e-18
8474.00193 8.25108e-18
8475.99876 7.78925e-18
8477.99559 7.40298e-18
8480.00251 7.40613e-18
8481.99934 7.16706e-18
8483.99616 6.70859e-18
8486.00308 6.74888e-18
8487.99991 7.22093e-18
8489.99674 7.75339e-18
8492.00366 8.02403e-18
8494.00048 8.37708e-18
8495.99731 8.73698e-18
8498.00423 8.85161e-18
8500.00106 9.43483e-18
8501.99789 1.03059e-17
8504.00480 1.07084e-17
8506.00163 1.05579e-17
8507.99847 9.84308e-18
8509.99530 8.80529e-18
8512.00221 8.32505e-18
8513.99904 8.17408e-18
8515.99587 7.69252e-18
8518.00278 7.02921e-18
8519.99962 6.36726e-18
8521.99644 5.95490e-18
8524.00336 6.15954e-18
8526.00019 7.13170e-18
8527.99702 8.59183e-18
8530.00394 9.74505e-18
8532.00076 1.03404e-17
8533.99759 1.05556e-17
8536.00451 1.07558e-17
8538.00134 1.09343e-17
8539.99817 1.09818e-17
8541.99500 1.09151e-17
8544.00191 1.05846e-17
8545.99874 9.97922e-18
8547.99558 9.37173e-18
8550.00249 9.07988e-18
8551.99932 8.98051e-18
8553.99615 8.49092e-18
8556.00306 8.05821e-18
8557.99990 8.16651e-18
8559.99672 8.79624e-18
8562.00364 9.28298e-18
8564.00047 9.27563e-18
8565.99730 9.09763e-18
8568.00422 9.44979e-18
8570.00105 1.05155e-17
8571.99787 1.17233e-17
8574.00479 1.19707e-17
8576.00162 1.15900e-17
8577.99845 1.18389e-17
8579.99528 1.17536e-17
8582.00219 1.10750e-17
8583.99902 1.03951e-17
8585.99585 9.78549e-18
8588.00277 9.35020e-18
8589.99960 9.16169e-18
8591.99643 9.01258e-18
8594.00334 8.66607e-18
8596.00017 8.15198e-18
8597.99701 8.16157e-18
8600.00392 8.75915e-18
8602.00075 9.48506e-18
8603.99758 9.78662e-18
8606.00449 1.01806e-17
8608.00133 1.12243e-17
8609.99815 1.20951e-17
8612.00507 1.25474e-17
8614.00190 1.26922e-17
8615.99873 1.25771e-17
8617.99556 1.22061e-17
8620.00247 1.16009e-17
8621.99930 1.08692e-17
8623.99613 1.01314e-17
8626.00305 9.54420e-18
8627.99988 9.27935e-18
8629.99671 8.90338e-18
8632.00362 8.24308e-18
8634.00045 7.87286e-18
8635.99728 8.14874e-18
8638.00420 8.75601e-18
8640.00103 8.76452e-18
8641.99786 8.55144e-18
8644.00477 8.90537e-18
8646.00160 1.03035e-17
8647.99843 1.19446e-17
8649.99526 1.30588e-17
8652.00218 1.34868e-17
8653.99901 1.32145e-17
8655.99584 1.24400e-17
8658.00275 1.15220e-17
8659.99958 1.09719e-17
8661.99641 1.06792e-17
8664.00333 1.00882e-17
8666.00016 9.43851e-18
8667.99699 9.03657e-18
8670.00390 8.96760e-18
8672.00073 8.87743e-18
8673.99756 8.61773e-18
8676.00448 8.34889e-18
8678.00131 8.37695e-18
8679.99814 8.94873e-18
8682.00505 1.00001e-17
8684.00188 1.08179e-17
8685.99871 1.13116e-17
8687.99554 1.17595e-17
8690.00246 1.20621e-17
8691.99929 1.22657e-17
8693.99612 1.23085e-17
8696.00303 1.16554e-17
8697.99986 1.05214e-17
8699.99669 9.61424e-18
8702.00361 9.63923e-18
8704.00044 9.96921e-18
8705.99727 9.69399e-18
8708.00418 8.80107e-18
8710.00101 8.03035e-18
8711.99784 7.93272e-18
8714.00476 8.10431e-18
8716.00159 8.34635e-18
8717.99842 8.57185e-18
8719.99525 8.74815e-18
8722.00216 9.42883e-18
8723.99899 1.05707e-17
8725.99582 1.11024e-17
8728.00274 1.15419e-17
8729.99957 1.21845e-17
8731.99640 1.23400e-17
8734.00331 1.19826e-17
8736.00014 1.11995e-17
8737.99698 1.00564e-17
8740.00389 9.19088e-18
8742.00072 8.88981e-18
8743.99755 8.84761e-18
8746.00446 8.71449e-18
8748.00130 8.48364e-18
8749.99813 8.39146e-18
8752.00504 7.95246e-18
8754.00187 7.47469e-18
8755.99870 7.83771e-18
8757.99553 8.81920e-18
8760.00245 9.72333e-18
8761.99928 9.99357e-18
8763.99610 1.02081e-17
8766.00302 1.07323e-17
8767.99985 1.14386e-17
8769.99668 1.17884e-17
8772.00360 1.14609e-17
8774.00042 1.05366e-17
8775.99726 9.52205e-18
8778.00417 8.87117e-18
8780.00100 8.72513e-18
8781.99783 8.71724e-18
8784.00474 8.58817e-18
8786.00158 8.31134e-18
8787.99841 8.12636e-18
8790.00532 7.84693e-18
8792.00215 7.33146e-18
8793.99898 7.00264e-18
8795.99581 7.30279e-18
8798.00273 8.18860e-18
8799.99956 8.82567e-18
8801.99638 9.46446e-18
8804.00330 1.03403e-17
8806.00013 1.08487e-17
8807.99696 1.12137e-17
8810.00388 1.15739e-17
8812.00070 1.14677e-17
8813.99753 1.08743e-17
8816.00445 1.01301e-17
8818.00128 9.72070e-18
8819.99811 9.44855e-18
8822.00502 8.92492e-18
8824.00185 7.94955e-18
8825.99869 6.83567e-18
8827.99552 6.27450e-18
8830.00243 6.85357e-18
8831.99926 7.45929e-18
8833.99609 7.46948e-18
8836.00301 7.33046e-18
8837.99984 7.50777e-18
8839.99666 7.99595e-18
8842.00358 8.43661e-18
8844.00041 9.15862e-18
8845.99724 9.87676e-18
8848.00416 9.99202e-18
8850.00098 1.01684e-17
8851.99781 1.04602e-17
8854.00473 1.03104e-17
8856.00156 9.32638e-18
8857.99839 8.22041e-18
8860.00530 7.91398e-18
8862.00213 7.62519e-18
8863.99897 7.20393e-18
8865.99580 6.97448e-18
8868.00271 6.96737e-18
8869.99954 6.99338e-18
8871.99637 6.87509e-18
8874.00328 6.73914e-18
8876.00012 6.95384e-18
8877.99694 7.50271e-18
8880.00386 7.36802e-18
8882.00069 7.39322e-18
8883.99752 8.50641e-18
8886.00444 9.87441e-18
8888.00126 1.08526e-17
8889.99809 1.12607e-17
8892.00501 1.14714e-17
8894.00184 1.10077e-17
8895.99867 9.65612e-18
8897.99550 8.19138e-18
8900.00241 7.43121e-18
8901.99924 7.37249e-18
8903.99608 6.94872e-18
8906.00299 5.76554e-18
8907.99982 4.66516e-18
8909.99665 5.30299e-18
8912.00356 6.25698e-18
8914.00040 6.27895e-18
8915.99722 5.72133e-18
8918.00414 5.60379e-18
8920.00097 6.25292e-18
8921.99780 7.00239e-18
8924.00472 7.44989e-18
8926.00154 7.77691e-18
8927.99837 8.48057e-18
8930.00529 9.12527e-18
8932.00212 9.17096e-18
8933.99895 8.43088e-18
8935.99578 7.65138e-18
8938.00269 6.86554e-18
8939.99952 5.72243e-18
8941.99635 5.21571e-18
8944.00327 5.50926e-18
8946.00010 5.99687e-18
8947.99693 6.27399e-18
8950.00384 6.03449e-18
8952.00067 5.31611e-18
8953.99750 4.79468e-18
8956.00442 4.96610e-18
8958.00125 5.69977e-18
8959.99808 5.84919e-18
8961.99491 5.81286e-18
8964.00183 6.51631e-18
8965.99865 7.84577e-18
8968.00557 8.72954e-18
8970.00240 8.49465e-18
8971.99923 8.19114e-18
8973.99606 7.72054e-18
8976.00297 6.91088e-18
8977.99980 6.51844e-18
8979.99663 6.05595e-18
8982.00355 5.22399e-18
8984.00038 4.89249e-18
8985.99721 5.13315e-18
8988.00412 5.43184e-18
8990.00095 5.06626e-18
8991.99778 4.57769e-18
8994.00470 4.50594e-18
8996.00153 4.70550e-18
8997.99836 5.22327e-18
8999.99519 5.96960e-18
9000.79538 5.96960e-18
9001.65685 5.96511e-18
9002.51831 5.96083e-18
9003.38979 6.02953e-18
9004.25125 6.09842e-18
9005.11271 6.21636e-18
9005.97417 6.33442e-18
9006.83563 6.45464e-18
9007.69710 6.57486e-18
9008.55856 6.66075e-18
9009.42002 6.74654e-18
9010.28148 6.78112e-18
9011.14295 6.81556e-18
9012.00441 6.79960e-18
9012.87589 6.78350e-18
9013.73735 6.75732e-18
9014.59881 6.73113e-18
9015.46027 6.72469e-18
9016.32173 6.71829e-18
9017.18320 6.71330e-18
9018.04466 6.70831e-18
9018.90612 6.69115e-18
9019.76758 6.67396e-18
9020.62904 6.66037e-18
9021.49051 6.64678e-18
9022.35197 6.65309e-18
9023.22345 6.65946e-18
9024.08491 6.70623e-18
9024.94637 6.75310e-18
9025.80783 6.85674e-18
9026.66930 6.96053e-18
9027.53076 7.09612e-18
9028.39222 7.23182e-18
9029.25368 7.36170e-18
9030.11514 7.49150e-18
9030.97660 7.58949e-18
9031.83807 7.68734e-18
9032.70955 7.73398e-18
9033.57101 7.78048e-18
9034.43247 7.77404e-18
9035.29393 7.76746e-18
9036.15539 7.71785e-18
9037.01686 7.66810e-18
9037.87832 7.60077e-18
9038.73978 7.53338e-18
9039.60124 7.48746e-18
9040.46270 7.44168e-18
9041.32417 7.42765e-18
9042.18563 7.41369e-18
9043.05711 7.40292e-18
9043.91857 7.39207e-18
9044.78003 7.36944e-18
9045.64149 7.34673e-18
9046.50295 7.32127e-18
9047.36442 7.29582e-18
9048.22588 7.27542e-18
9049.08734 7.25503e-18
9049.94880 7.25228e-18
9050.81027 7.24946e-18
9051.67173 7.26769e-18
9052.54321 7.28598e-18
9053.40467 7.28794e-18
9054.26613 7.28974e-18
9055.12759 7.24274e-18
9055.98905 7.19562e-18
9056.85052 7.11710e-18
9057.71198 7.03848e-18
9058.57344 6.95209e-18
9059.43490 6.86567e-18
9060.29636 6.77435e-18
9061.16784 6.68300e-18
9062.02931 6.58792e-18
9062.89077 6.49281e-18
9063.75223 6.39050e-18
9064.61369 6.28817e-18
9065.47515 6.17101e-18
9066.33662 6.05380e-18
9067.19808 5.95164e-18
9068.05954 5.84951e-18
9068.92100 5.81187e-18
9069.78246 5.77440e-18
9070.64393 5.79034e-18
9071.51540 5.80642e-18
9072.37687 5.82046e-18
9073.23833 5.83451e-18
9074.09979 5.82620e-18
9074.96125 5.81784e-18
9075.82271 5.80267e-18
9076.68418 5.78748e-18
9077.54564 5.77514e-18
9078.40710 5.76280e-18
9079.26856 5.75887e-18
9080.13002 5.75497e-18
9080.99149 5.75924e-18
9081.86297 5.76353e-18
9082.72443 5.75677e-18
9083.58589 5.74998e-18
9084.44735 5.72145e-18
9085.30881 5.69288e-18
9086.17028 5.66377e-18
9087.03174 5.63465e-18
9087.89320 5.62128e-18
9088.75466 5.60793e-18
9089.61612 5.58946e-18
9090.48760 5.57097e-18
9091.34906 5.52745e-18
9092.21053 5.48410e-18
9093.07199 5.43612e-18
9093.93345 5.38813e-18
9094.79491 5.36089e-18
9095.65637 5.33371e-18
9096.51784 5.32007e-18
9097.37930 5.30648e-18
9098.24076 5.29141e-18
9099.10222 5.27634e-18
9099.97370 5.26373e-18
9100.83516 5.25113e-18
9101.69663 5.24904e-18
9102.55809 5.24697e-18
9103.41955 5.27079e-18
9104.28101 5.29468e-18
9105.14247 5.36648e-18
9106.00393 5.43842e-18
9106.86540 5.53204e-18
9107.72686 5.62572e-18
9108.58832 5.67405e-18
9109.45980 5.72225e-18
9110.32126 5.69668e-18
9111.18272 5.67091e-18
9112.04419 5.58809e-18
9112.90565 5.50511e-18
9113.76711 5.39927e-18
9114.62857 5.29337e-18
9115.49003 5.23473e-18
9116.35150 5.17623e-18
9117.21296 5.20140e-18
9118.07442 5.22681e-18
9118.93588 5.28160e-18
9119.80736 5.33648e-18
9120.66882 5.36799e-18
9121.53028 5.39943e-18
9122.39175 5.37377e-18
9123.25321 5.34794e-18
9124.11467 5.24475e-18
9124.97613 5.14136e-18
9125.83760 5.00837e-18
9126.69906 4.87531e-18
9127.56052 4.77061e-18
9128.43200 4.66600e-18
9129.29346 4.61961e-18
9130.15492 4.57339e-18
9131.01638 4.60464e-18
9131.87785 4.63610e-18
9132.73931 4.73195e-18
9133.60077 4.82799e-18
9134.46223 4.95898e-18
9135.32369 5.09006e-18
9136.18516 5.22551e-18
9137.04662 5.36097e-18
9137.90808 5.46922e-18
9138.76954 5.57739e-18
9139.64102 5.63807e-18
9140.50248 5.69862e-18
9141.36395 5.70484e-18
9142.22541 5.71093e-18
9143.08687 5.65239e-18
9143.94833 5.59367e-18
9144.80979 5.45553e-18
9145.67125 5.31717e-18
9146.53272 5.11733e-18
9147.39418 4.91732e-18
9148.26566 4.71613e-18
9149.12712 4.51495e-18
9149.98858 4.36720e-18
9150.85004 4.21960e-18
9151.71151 4.16959e-18
9152.57297 4.11986e-18
9153.43443 4.18488e-18
9154.29589 4.25022e-18
9155.15735 4.37345e-18
9156.01882 4.49683e-18
9156.88028 4.61820e-18
9157.75176 4.73957e-18
9158.61322 4.83102e-18
9159.47468 4.92238e-18
9160.33614 4.96222e-18
9161.19760 5.00191e-18
9162.05907 4.99158e-18
9162.92053 4.98110e-18
9163.78199 4.93238e-18
9164.64345 4.88356e-18
9165.50492 4.79483e-18
9166.36638 4.70598e-18
9167.22784 4.57513e-18
9168.09932 4.44417e-18
9168.96078 4.30368e-18
9169.82224 4.16316e-18
9170.68370 4.05696e-18
9171.54517 3.95087e-18
9172.40663 3.90094e-18
9173.26809 3.85115e-18
9174.12955 3.86704e-18
9174.99101 3.88311e-18
9175.85248 3.93781e-18
9176.71394 3.99261e-18
9177.58542 4.02473e-18
9178.44688 4.05679e-18
9179.30834 4.04847e-18
9180.16980 4.04005e-18
9181.03127 4.03158e-18
9181.89273 4.02312e-18
9182.75419 4.03667e-18
9183.61565 4.05029e-18
9184.47711 4.07796e-18
9185.33857 4.10566e-18
9186.20004 4.13790e-18
9187.07152 4.17015e-18
9187.93298 4.18384e-18
9188.79444 4.19747e-18
9189.65590 4.17978e-18
9190.51736 4.16199e-18
9191.37883 4.14865e-18
9192.24029 4.13531e-18
9193.10175 4.15813e-18
9193.96321 4.18105e-18
9194.82467 4.22589e-18
9195.68614 4.27079e-18
9196.55762 4.31747e-18
9197.41908 4.36415e-18
9198.28054 4.39442e-18
9199.14200 4.42465e-18
9200.00346 4.42098e-18
9200.86492 4.41723e-18
9201.72639 4.39255e-18
9202.58785 4.36780e-18
9203.44931 4.34751e-18
9204.31077 4.32723e-18
9205.17224 4.31207e-18
9206.04371 4.29691e-18
9206.90518 4.27571e-18
9207.76664 4.25450e-18
9208.62810 4.23081e-18
9209.48956 4.20712e-18
9210.35102 4.19289e-18
9211.21249 4.17868e-18
9212.07395 4.18588e-18
9212.93541 4.19315e-18
9213.79687 4.23553e-18
9214.65833 4.27800e-18
9215.52981 4.35280e-18
9216.39127 4.42770e-18
9217.25274 4.50651e-18
9218.11420 4.58533e-18
9218.97566 4.64969e-18
9219.83712 4.71400e-18
9220.69859 4.76979e-18
9221.56005 4.82556e-18
9222.42151 4.87610e-18
9223.28297 4.92663e-18
9224.14443 4.96629e-18
9225.00590 5.00593e-18
9225.87737 5.03078e-18
9226.73884 5.05559e-18
9227.60030 5.06150e-18
9228.46176 5.06736e-18
9229.32322 5.05273e-18
9230.18468 5.03807e-18
9231.04615 5.01958e-18
9231.90761 5.00109e-18
9232.76907 4.99800e-18
9233.63053 4.99494e-18
9234.49199 5.00300e-18
9235.35346 5.01109e-18
9236.22494 5.01947e-18
9237.08640 5.02785e-18
9237.94786 5.04149e-18
9238.80932 5.05514e-18
9239.67078 5.08422e-18
9240.53225 5.11334e-18
9241.39371 5.16273e-18
9242.25517 5.21218e-18
9243.11663 5.28387e-18
9243.97809 5.35563e-18
9244.84957 5.44339e-18
9245.71103 5.53118e-18
9246.57250 5.62075e-18
9247.43396 5.71032e-18
9248.29542 5.79356e-18
9249.15688 5.87678e-18
9250.01834 5.95538e-18
9250.87981 6.03396e-18
9251.74127 6.10394e-18
9252.60273 6.17389e-18
9253.46419 6.21848e-18
9254.32565 6.26300e-18
9255.19713 6.27946e-18
9256.05860 6.29583e-18
9256.92006 6.31676e-18
9257.78152 6.33770e-18
9258.64298 6.38764e-18
9259.50444 6.43764e-18
9260.36591 6.50916e-18
9261.22737 6.58074e-18
9262.08883 6.66067e-18
9262.95029 6.74060e-18
9263.81175 6.80008e-18
9264.68323 6.85948e-18
9265.54469 6.87089e-18
9266.40616 6.88216e-18
9267.26762 6.84628e-18
9268.12908 6.81027e-18
9268.99054 6.73846e-18
9269.85200 6.66657e-18
9270.71347 6.58558e-18
9271.57493 6.50457e-18
9272.43639 6.44626e-18
9273.29785 6.38802e-18
9274.16933 6.37754e-18
9275.03079 6.36719e-18
9275.89226 6.42295e-18
9276.75372 6.47889e-18
9277.61518 6.59150e-18
9278.47664 6.70427e-18
9279.33810 6.84273e-18
9280.19957 6.98125e-18
9281.06103 7.11208e-18
9281.92249 7.24288e-18
9282.79397 7.33378e-18
9283.65543 7.42461e-18
9284.51689 7.44992e-18
9285.37835 7.47502e-18
9286.23982 7.41948e-18
9287.10128 7.36372e-18
9287.96274 7.23406e-18
9288.82420 7.10412e-18
9289.68566 6.94141e-18
9290.54713 6.77862e-18
9291.40859 6.63070e-18
9292.27005 6.48282e-18
9293.14153 6.41262e-18
9294.00299 6.34263e-18
9294.86445 6.39125e-18
9295.72592 6.44020e-18
9296.58738 6.56530e-18
9297.44884 6.69062e-18
9298.31030 6.83602e-18
9299.17176 6.98146e-18
9300.03323 7.07057e-18
9300.89469 7.15951e-18
9301.75615 7.11887e-18
9302.62763 7.07786e-18
9303.48909 6.97803e-18
9304.35055 6.87803e-18
9305.21201 6.83436e-18
9306.07348 6.79086e-18
9306.93494 6.77648e-18
9307.79640 6.76218e-18
9308.65786 6.69338e-18
9309.51932 6.62443e-18
9310.38079 6.50509e-18
9311.24225 6.38563e-18
9312.11373 6.26515e-18
9312.97519 6.14468e-18
9313.83665 6.07149e-18
9314.69811 5.99844e-18
9315.55958 6.02760e-18
9316.42104 6.05707e-18
9317.28250 6.17787e-18
9318.14396 6.29893e-18
9319.00542 6.40548e-18
9319.86688 6.51198e-18
9320.72835 6.56271e-18
9321.58981 6.61329e-18
9322.46129 6.70579e-18
9323.32275 6.79841e-18
9324.18421 6.95404e-18
9325.04567 7.10984e-18
9325.90714 7.12903e-18
9326.76860 7.14783e-18
9327.63006 6.90756e-18
9328.49152 6.66655e-18
9329.35298 6.35998e-18
9330.21445 6.05321e-18
9331.07591 5.86734e-18
9331.94739 5.68182e-18
9332.80885 5.58058e-18
9333.67031 5.47960e-18
9334.53177 5.40899e-18
9335.39323 5.33847e-18
9336.25470 5.29970e-18
9337.11616 5.26103e-18
9337.97762 5.24483e-18
9338.83908 5.22872e-18
9339.70055 5.39978e-18
9340.56201 5.57137e-18
9341.43349 6.15272e-18
9342.29495 6.73522e-18
9343.15641 7.44117e-18
9344.01787 8.14741e-18
9344.87933 8.45237e-18
9345.74080 8.75610e-18
9346.60226 8.50328e-18
9347.46372 8.24880e-18
9348.32518 7.52766e-18
9349.18664 6.80523e-18
9350.04811 5.94744e-18
9350.90957 5.08927e-18
9351.78105 4.70641e-18
9352.64251 4.32492e-18
9353.50397 4.61766e-18
9354.36543 4.91232e-18
9355.22689 5.43822e-18
9356.08836 5.96477e-18
9356.94982 6.35183e-18
9357.81128 6.73849e-18
9358.67274 6.76482e-18
9359.53420 6.79012e-18
9360.39567 6.35978e-18
9361.26715 5.92815e-18
9362.12861 5.38970e-18
9362.99007 4.85096e-18
9363.85153 4.53338e-18
9364.71299 4.21644e-18
9365.57446 4.13867e-18
9366.43592 4.06159e-18
9367.29738 4.19194e-18
9368.15884 4.32288e-18
9369.02030 4.49791e-18
9369.89178 4.67306e-18
9370.75324 4.70560e-18
9371.61471 4.73772e-18
9372.47617 4.63923e-18
9373.33763 4.54038e-18
9374.19909 4.38081e-18
9375.06056 4.22107e-18
9375.92202 4.10737e-18
9376.78348 3.99380e-18
9377.64494 4.05660e-18
9378.50640 4.11989e-18
9379.37788 4.30965e-18
9380.23934 4.49977e-18
9381.10081 4.64829e-18
9381.96227 4.79667e-18
9382.82373 4.85035e-18
9383.68519 4.90376e-18
9384.54665 4.91097e-18
9385.40812 4.91804e-18
9386.26958 4.89216e-18
9387.13104 4.86619e-18
9387.99250 4.78457e-18
9388.85396 4.70279e-18
9389.72544 4.56415e-18
9390.58691 4.42535e-18
9391.44837 4.25061e-18
9392.30983 4.07577e-18
9393.17129 3.89360e-18
9394.03275 3.71140e-18
9394.89422 3.57266e-18
9395.75568 3.43406e-18
9396.61714 3.37319e-18
9397.47860 3.31256e-18
9398.34006 3.30405e-18
9399.21154 3.29569e-18
9400.07300 3.30745e-18
9400.93447 3.31926e-18
9401.79593 3.32045e-18
9402.65739 3.32161e-18
9403.51885 3.28525e-18
9404.38031 3.24878e-18
9405.24178 3.20519e-18
9406.10324 3.16158e-18
9406.96470 3.15335e-18
9407.82616 3.14522e-18
9408.69764 3.17281e-18
9409.55910 3.20050e-18
9410.42057 3.24911e-18
9411.28203 3.29777e-18
9412.14349 3.34439e-18
9413.00495 3.39101e-18
9413.86641 3.40837e-18
9414.72788 3.42564e-18
9415.58934 3.39556e-18
9416.45080 3.36534e-18
9417.31226 3.28221e-18
9418.17372 3.19891e-18
9419.04520 3.06853e-18
9419.90666 2.93802e-18
9420.76813 2.76910e-18
9421.62959 2.60008e-18
9422.49105 2.45308e-18
9423.35251 2.30615e-18
9424.21397 2.32535e-18
9425.07544 2.34503e-18
9425.93690 2.57676e-18
9426.79836 2.80909e-18
9427.65982 3.10207e-18
9428.53130 3.39521e-18
9429.39276 3.60361e-18
9430.25423 3.81176e-18
9431.11569 3.80057e-18
9431.97715 3.78875e-18
9432.83861 3.48959e-18
9433.70007 3.18961e-18
9434.56153 2.83969e-18
9435.42300 2.48964e-18
9436.28446 2.33707e-18
9437.14592 2.18509e-18
9438.01740 2.26898e-18
9438.87886 2.35355e-18
9439.74032 2.65782e-18
9440.60179 2.96272e-18
9441.46325 3.33284e-18
9442.32471 3.70314e-18
9443.18617 3.94022e-18
9444.04763 4.17690e-18
9444.90910 4.22404e-18
9445.77056 4.27061e-18
9446.63202 4.14023e-18
9447.49348 4.00933e-18
9448.36496 3.77181e-18
9449.22642 3.53399e-18
9450.08788 3.30258e-18
9450.94935 3.07119e-18
9451.81081 2.91967e-18
9452.67227 2.76839e-18
9453.53373 2.72553e-18
9454.39520 2.68299e-18
9455.25666 2.75596e-18
9456.11812 2.82928e-18
9456.98960 3.00038e-18
9457.85106 3.17177e-18
9458.71252 3.38978e-18
9459.57398 3.60791e-18
9460.43545 3.76944e-18
9461.29691 3.93080e-18
9462.15837 3.97356e-18
9463.01983 4.01598e-18
9463.88129 3.98864e-18
9464.74276 3.96110e-18
9465.60422 3.91454e-18
9466.47570 3.86792e-18
9467.33716 3.83339e-18
9468.19862 3.79890e-18
9469.06008 3.80151e-18
9469.92155 3.80423e-18
9470.78301 3.80548e-18
9471.64447 3.80672e-18
9472.50593 3.76560e-18
9473.36739 3.72435e-18
9474.22885 3.66653e-18
9475.09032 3.60866e-18
9475.96180 3.56907e-18
9476.82326 3.52953e-18
9477.68472 3.58058e-18
9478.54618 3.63188e-18
9479.40764 3.85521e-18
9480.26911 4.07903e-18
9481.13057 4.38597e-18
9481.99203 4.69316e-18
9482.85349 4.91222e-18
9483.71495 5.13101e-18
9484.57642 5.17179e-18
9485.43788 5.21204e-18
9486.30936 5.04288e-18
9487.17082 4.87312e-18
9488.03228 4.56290e-18
9488.89374 4.25229e-18
9489.75520 3.98244e-18
9490.61667 3.71270e-18
9491.47813 3.59920e-18
9492.33959 3.48617e-18
9493.20105 3.52690e-18
9494.06252 3.56808e-18
9494.92398 3.76246e-18
9495.79546 3.95729e-18
9496.65692 4.33009e-18
9497.51838 4.70340e-18
9498.37984 5.21531e-18
9499.24130 5.72762e-18
9500.10277 6.17833e-18
9500.96423 6.62885e-18
9501.82569 6.84509e-18
9502.68715 7.06065e-18
9503.54861 7.01504e-18
9504.41008 6.96867e-18
9505.28155 6.67889e-18
9506.14302 6.38840e-18
9507.00448 6.00498e-18
9507.86594 5.62129e-18
9508.72740 5.32325e-18
9509.58887 5.02546e-18
9510.45033 4.83036e-18
9511.31179 4.63555e-18
9512.17325 4.50799e-18
9513.03471 4.38063e-18
9513.89617 4.35546e-18
9514.75764 4.33058e-18
9515.62912 4.45765e-18
9516.49058 4.58515e-18
9517.35204 4.84992e-18
9518.21350 5.11508e-18
9519.07496 5.46865e-18
9519.93643 5.82249e-18
9520.79789 6.17880e-18
9521.65935 6.53513e-18
9522.52081 6.77563e-18
9523.38227 7.01580e-18
9524.24374 7.10057e-18
9525.11522 7.18489e-18
9525.97668 7.17621e-18
9526.83814 7.16726e-18
9527.69960 7.12258e-18
9528.56106 7.07779e-18
9529.42252 7.04248e-18
9530.28399 7.00720e-18
9531.14545 7.00671e-18
9532.00691 7.00633e-18
9532.86837 7.00036e-18
9533.72984 6.99437e-18
9534.60131 6.94888e-18
9535.46278 6.90327e-18
9536.32424 6.80796e-18
9537.18570 6.71250e-18
9538.04716 6.57284e-18
9538.90862 6.43304e-18
9539.77009 6.37649e-18
9540.63155 6.32017e-18
9541.49301 6.46703e-18
9542.35447 6.61447e-18
9543.21593 6.87855e-18
9544.08741 7.14296e-18
9544.94888 7.39598e-18
9545.81034 7.64894e-18
9546.67180 7.76573e-18
9547.53326 7.88208e-18
9548.39472 7.73427e-18
9549.25619 7.58573e-18
9550.11765 7.32221e-18
9550.97911 7.05837e-18
9551.84057 6.97887e-18
9552.70203 6.89992e-18
9553.57351 7.02481e-18
9554.43497 7.15029e-18
9555.29644 7.30240e-18
9556.15790 7.45455e-18
9557.01936 7.51450e-18
9557.88082 7.57416e-18
9558.74228 7.46243e-18
9559.60375 7.35027e-18
9560.46521 7.11619e-18
9561.32667 6.88180e-18
9562.18813 6.79598e-18
9563.05961 6.71061e-18
9563.92107 6.91265e-18
9564.78254 7.11553e-18
9565.64400 7.46171e-18
9566.50546 7.80832e-18
9567.36692 8.14401e-18
9568.22838 8.47963e-18
9569.08985 8.62029e-18
9569.95131 8.76043e-18
9570.81277 8.57907e-18
9571.67423 8.39676e-18
9572.53569 8.05318e-18
9573.40717 7.70918e-18
9574.26863 7.39330e-18
9575.13010 7.07757e-18
9575.99156 6.91636e-18
9576.85302 6.75562e-18
9577.71448 6.84935e-18
9578.57594 6.94382e-18
9579.43741 7.13489e-18
9580.29887 7.32619e-18
9581.16033 7.38440e-18
9582.02179 7.44226e-18
9582.89327 7.33718e-18
9583.75473 7.23167e-18
9584.61620 7.00848e-18
9585.47766 6.78491e-18
9586.33912 6.60453e-18
9587.20058 6.42429e-18
9588.06204 6.53182e-18
9588.92351 6.64021e-18
9589.78497 7.00498e-18
9590.64643 7.37052e-18
9591.51791 7.71135e-18
9592.37937 8.05217e-18
9593.24083 8.21749e-18
9594.10229 8.38237e-18
9594.96376 8.38670e-18
9595.82522 8.39061e-18
9596.68668 8.26449e-18
9597.54814 8.13801e-18
9598.40960 7.95252e-18
9599.27107 7.76696e-18
9600.13253 7.60063e-18
9600.99399 7.43430e-18
9601.86547 7.34919e-18
9602.72693 7.26429e-18
9603.58839 7.30088e-18
9604.44986 7.33791e-18
9605.31132 7.48948e-18
9606.17278 7.64142e-18
9607.03424 7.87384e-18
9607.89570 8.10641e-18
9608.75717 8.27187e-18
9609.61863 8.43711e-18
9610.48009 8.39314e-18
9611.35157 8.34852e-18
9612.21303 8.15551e-18
9613.07449 7.96214e-18
9613.93595 7.73405e-18
9614.79742 7.50582e-18
9615.65888 7.32185e-18
9616.52034 7.13797e-18
9617.38180 7.06414e-18
9618.24326 6.99064e-18
9619.10473 7.04393e-18
9619.96619 7.09760e-18
9620.82765 7.25966e-18
9621.69913 7.42208e-18
9622.56059 7.63447e-18
9623.42205 7.84701e-18
9624.28352 8.02838e-18
9625.14498 8.20968e-18
9626.00644 8.28250e-18
9626.86790 8.35496e-18
9627.72936 8.24656e-18
9628.59083 8.13765e-18
9629.45229 7.86936e-18
9630.31375 7.60063e-18
9631.17521 7.33125e-18
9632.04669 7.06183e-18
9632.90815 6.91458e-18
9633.76961 6.76769e-18
9634.63108 6.79055e-18
9635.49254 6.81391e-18
9636.35400 7.00180e-18
9637.21546 7.19018e-18
9638.07692 7.36488e-18
9638.93839 7.53952e-18
9639.79985 7.55370e-18
9640.67133 7.56736e-18
9641.53279 7.51298e-18
9642.39425 7.45838e-18
9643.25571 7.44291e-18
9644.11718 7.42758e-18
9644.97864 7.47697e-18
9645.84010 7.52665e-18
9646.70156 7.65147e-18
9647.56302 7.77650e-18
9648.42448 7.89337e-18
9649.28595 8.01016e-18
9650.15743 8.01044e-18
9651.01889 8.01030e-18
9651.88035 7.89358e-18
9652.74181 7.77650e-18
9653.60327 7.59152e-18
9654.46474 7.40624e-18
9655.32620 7.21986e-18
9656.18766 7.03344e-18
9657.04912 6.92288e-18
9657.91058 6.81254e-18
9658.77205 6.82094e-18
9659.64352 6.82970e-18
9660.50499 6.96763e-18
9661.36645 7.10595e-18
9662.22791 7.32973e-18
9663.08937 7.55377e-18
9663.95083 7.74938e-18
9664.81230 7.94493e-18
9665.67376 8.04639e-18
9666.53522 8.14763e-18
9667.39668 8.18986e-18
9668.25815 8.23195e-18
9669.11961 8.23499e-18
9669.99109 8.23788e-18
9670.85255 8.16795e-18
9671.71401 8.09773e-18
9672.57547 7.94558e-18
9673.43693 7.79314e-18
9674.29840 7.62095e-18
9675.15986 7.44862e-18
9676.02132 7.31845e-18
9676.88278 7.18844e-18
9677.74424 7.14363e-18
9678.61572 7.09907e-18
9679.47718 7.16832e-18
9680.33865 7.23789e-18
9681.20011 7.36416e-18
9682.06157 7.49049e-18
9682.92303 7.59427e-18
9683.78449 7.69797e-18
9684.64596 7.75575e-18
9685.50742 7.81331e-18
9686.36888 7.82184e-18
9687.23034 7.83023e-18
9688.10182 7.79776e-18
9688.96328 7.76522e-18
9689.82475 7.71185e-18
9690.68621 7.65841e-18
9691.54767 7.58776e-18
9692.40913 7.51703e-18
9693.27059 7.41847e-18
9694.13206 7.31975e-18
9694.99352 7.20779e-18
9695.85498 7.09578e-18
9696.71644 7.01020e-18
9697.57790 6.92470e-18
9698.44938 6.88527e-18
9699.31084 6.84599e-18
9700.17231 6.84522e-18
9701.03377 6.84457e-18
9701.89523 6.86617e-18
9702.75669 6.88785e-18
9703.61816 6.89567e-18
9704.47962 6.90345e-18
9705.34108 6.87411e-18
9706.20254 6.84466e-18
9707.06400 6.80070e-18
9707.93548 6.75669e-18
9708.79694 6.72147e-18
9709.65841 6.68628e-18
9710.51987 6.67253e-18
9711.38133 6.65885e-18
9712.24279 6.67489e-18
9713.10425 6.69102e-18
9713.96572 6.71466e-18
9714.82718 6.73833e-18
9715.68864 6.74288e-18
9716.55010 6.74739e-18
9717.41156 6.72521e-18
9718.28304 6.70296e-18
9719.14451 6.65098e-18
9720.00597 6.59890e-18
9720.86743 6.54492e-18
9721.72889 6.49094e-18
9722.59035 6.47773e-18
9723.45182 6.46464e-18
9724.31328 6.47342e-18
9725.17474 6.48227e-18
9726.03620 6.45724e-18
9726.89766 6.43210e-18
9727.76914 6.35350e-18
9728.63060 6.27474e-18
9729.49207 6.15295e-18
9730.35353 6.03103e-18
9731.21499 5.89202e-18
9732.07645 5.75296e-18
9732.93791 5.64453e-18
9733.79938 5.53620e-18
9734.66084 5.48813e-18
9735.52230 5.44023e-18
9736.38376 5.44672e-18
9737.25524 5.45336e-18
9738.11670 5.50101e-18
9738.97817 5.54879e-18
9739.83963 5.61122e-18
9740.70109 5.67371e-18
9741.56255 5.72487e-18
9742.42401 5.77600e-18
9743.28548 5.80205e-18
9744.14694 5.82803e-18
9745.00840 5.82080e-18
9745.86986 5.81346e-18
9746.74134 5.78404e-18
9747.60280 5.75457e-18
9748.46426 5.71822e-18
9749.32573 5.68185e-18
9750.18719 5.64220e-18
9751.04865 5.60254e-18
9751.91011 5.56149e-18
9752.77157 5.52044e-18
9753.63304 5.47664e-18
9754.49450 5.43284e-18
9755.35596 5.38346e-18
9756.22744 5.33407e-18
9757.08890 5.28938e-18
9757.95036 5.24470e-18
9758.81183 5.21989e-18
9759.67329 5.19514e-18
9760.53475 5.20194e-18
9761.39621 5.20884e-18
9762.25767 5.25734e-18
9763.11913 5.30596e-18
9763.98060 5.38088e-18
9764.84206 5.45587e-18
9765.71354 5.51422e-18
9766.57500 5.57251e-18
9767.43646 5.59320e-18
9768.29792 5.61376e-18
9769.15939 5.61061e-18
9770.02085 5.60738e-18
9770.88231 5.59216e-18
9771.74377 5.57691e-18
9772.60523 5.55552e-18
9773.46670 5.53411e-18
9774.32816 5.51402e-18
9775.19964 5.49391e-18
9776.06110 5.48101e-18
9776.92256 5.46812e-18
9777.78402 5.46635e-18
9778.64548 5.46462e-18
9779.50695 5.47901e-18
9780.36841 5.49345e-18
9781.22987 5.52539e-18
9782.09133 5.55739e-18
9782.95280 5.57924e-18
9783.81426 5.60105e-18
9784.68574 5.58274e-18
9785.54720 5.56430e-18
9786.40866 5.52039e-18
9787.27012 5.47642e-18
9788.13158 5.43431e-18
9788.99305 5.39221e-18
9789.85451 5.36154e-18
9790.71597 5.33090e-18
9791.57743 5.31568e-18
9792.43889 5.30050e-18
9793.30036 5.29047e-18
9794.16182 5.28044e-18
9795.03330 5.25400e-18
9795.89476 5.22750e-18
9796.75622 5.19094e-18
9797.61768 5.15437e-18
9798.47915 5.13925e-18
9799.34061 5.12419e-18
9800.20207 5.14104e-18
9801.06353 5.15799e-18
9801.92499 5.19186e-18
9802.78645 5.22579e-18
9803.64792 5.26159e-18
9804.51940 5.29739e-18
9805.38086 5.31743e-18
9806.24232 5.33741e-18
9807.10378 5.33308e-18
9807.96524 5.32867e-18
9808.82671 5.31697e-18
9809.68817 5.30524e-18
9810.54963 5.30233e-18
9811.41109 5.29945e-18
9812.27255 5.31555e-18
9813.13402 5.33171e-18
9813.99548 5.37158e-18
9814.86696 5.41152e-18
9815.72842 5.44677e-18
9816.58988 5.48201e-18
9817.45134 5.48252e-18
9818.31280 5.48293e-18
9819.17427 5.45271e-18
9820.03573 5.42241e-18
9820.89719 5.37414e-18
9821.75865 5.32581e-18
9822.62012 5.27809e-18
9823.48158 5.23037e-18
9824.35306 5.20488e-18
9825.21452 5.17946e-18
9826.07598 5.17304e-18
9826.93744 5.16668e-18
9827.79890 5.16179e-18
9828.66037 5.15690e-18
9829.52183 5.14919e-18
9830.38329 5.14147e-18
9831.24475 5.13615e-18
9832.10621 5.13084e-18
9832.97769 5.12670e-18
9833.83915 5.12256e-18
9834.70062 5.11279e-18
9835.56208 5.10301e-18
9836.42354 5.08447e-18
9837.28500 5.06590e-18
9838.14647 5.04042e-18
9839.00793 5.01492e-18
9839.86939 4.98458e-18
9840.73085 4.95423e-18
9841.59231 4.92011e-18
9842.45377 4.88598e-18
9843.32525 4.85197e-18
9844.18672 4.81795e-18
9845.04818 4.79611e-18
9845.90964 4.77429e-18
9846.77110 4.77409e-18
9847.63256 4.77396e-18
9848.49403 4.79248e-18
9849.35549 4.81105e-18
9850.21695 4.84289e-18
9851.07841 4.87477e-18
9851.93987 4.91478e-18
9852.81135 4.95481e-18
9853.67282 4.99690e-18
9854.53428 5.03899e-18
9855.39574 5.07931e-18
9856.25720 5.11962e-18
9857.11866 5.15534e-18
9857.98013 5.19104e-18
9858.84159 5.21451e-18
9859.70305 5.23794e-18
9860.56451 5.24042e-18
9861.42597 5.24283e-18
9862.29745 5.22313e-18
9863.15891 5.20335e-18
9864.02038 5.16522e-18
9864.88184 5.12703e-18
9865.74330 5.07743e-18
9866.60476 5.02779e-18
9867.46622 4.97666e-18
9868.32769 4.92554e-18
9869.18915 4.87861e-18
9870.05061 4.83169e-18
9870.92209 4.78829e-18
9871.78355 4.74490e-18
9872.64501 4.70577e-18
9873.50648 4.66665e-18
9874.36794 4.63515e-18
9875.22940 4.60367e-18
9876.09086 4.58245e-18
9876.95232 4.56126e-18
9877.81379 4.55276e-18
9878.67525 4.54429e-18
9879.53671 4.54962e-18
9880.39817 4.55500e-18
9881.26965 4.57247e-18
9882.13111 4.58998e-18
9882.99257 4.61645e-18
9883.85404 4.64295e-18
9884.71550 4.67270e-18
9885.57696 4.70246e-18
9886.43842 4.72929e-18
9887.29988 4.75611e-18
9888.16135 4.77421e-18
9889.02281 4.79229e-18
9889.88427 4.79681e-18
9890.74573 4.80128e-18
9891.61721 4.79209e-18
9892.47867 4.78286e-18
9893.34014 4.76241e-18
9894.20160 4.74193e-18
9895.06306 4.71287e-18
9895.92452 4.68377e-18
9896.78598 4.64885e-18
9897.64745 4.61391e-18
9898.50891 4.57768e-18
9899.37037 4.54143e-18
9900.23183 4.50988e-18
9901.09329 4.47834e-18
9901.96477 4.45247e-18
9902.82623 4.42661e-18
9903.68770 4.40131e-18
9904.54916 4.37602e-18
9905.41062 4.35248e-18
9906.27208 4.32894e-18
9907.13354 4.31825e-18
9907.99501 4.30759e-18
9908.85647 4.31502e-18
9909.71793 4.32252e-18
9910.57939 4.34302e-18
9911.45087 4.36357e-18
9912.31233 4.38890e-18
9913.17380 4.41425e-18
9914.03526 4.42698e-18
9914.89672 4.43968e-18
9915.75818 4.42598e-18
9916.61964 4.41220e-18
9917.48111 4.37690e-18
9918.34257 4.34154e-18
9919.20403 4.29311e-18
9920.07551 4.24463e-18
9920.93697 4.19267e-18
9921.79843 4.14069e-18
9922.65989 4.09497e-18
9923.52136 4.04927e-18
9924.38282 4.01408e-18
9925.24428 3.97893e-18
9926.10574 3.95595e-18
9926.96720 3.93301e-18
9927.82867 3.91588e-18
9928.69013 3.89876e-18
9929.56161 3.87736e-18
9930.42307 3.85595e-18
9931.28453 3.82699e-18
9932.14599 3.79800e-18
9933.00746 3.76292e-18
9933.86892 3.72782e-18
9934.73038 3.68959e-18
9935.59184 3.65136e-18
9936.45330 3.61429e-18
9937.31477 3.57722e-18
9938.17623 3.54699e-18
9939.03769 3.51679e-18
9939.90917 3.50054e-18
9940.77063 3.48433e-18
9941.63209 3.48402e-18
9942.49355 3.48376e-18
9943.35502 3.49200e-18
9944.21648 3.50025e-18
9945.07794 3.51066e-18
9945.93940 3.52107e-18
9946.80086 3.53202e-18
9947.66233 3.54299e-18
9948.52379 3.55264e-18
9949.39527 3.56229e-18
9950.25673 3.56711e-18
9951.11819 3.57191e-18
9951.97965 3.56961e-18
9952.84112 3.56728e-18
9953.70258 3.56244e-18
9954.56404 3.55759e-18
9955.42550 3.55524e-18
9956.28696 3.55289e-18
9957.14843 3.54967e-18
9958.00989 3.54645e-18
9958.88137 3.53771e-18
9959.74283 3.52895e-18
9960.60429 3.51232e-18
9961.46575 3.49567e-18
9962.32721 3.46961e-18
9963.18868 3.44353e-18
9964.05014 3.41585e-18
9964.91160 3.38816e-18
9965.77306 3.37189e-18
9966.63452 3.35564e-18
9967.49599 3.35382e-18
9968.36747 3.35204e-18
9969.22893 3.35966e-18
9970.09039 3.36729e-18
9970.95185 3.38356e-18
9971.81331 3.39985e-18
9972.67477 3.42850e-18
9973.53624 3.45719e-18
9974.39770 3.49667e-18
9975.25916 3.53619e-18
9976.12062 3.57805e-18
9976.98208 3.61992e-18
9977.85356 3.65743e-18
9978.71503 3.69494e-18
9979.57649 3.72489e-18
9980.43795 3.75482e-18
9981.29941 3.77608e-18
9982.16087 3.79732e-18
9983.02234 3.81441e-18
9983.88380 3.83149e-18
9984.74526 3.84897e-18
9985.60672 3.86646e-18
9986.46818 3.88660e-18
9987.32965 3.90674e-18
9988.20112 3.93071e-18
9989.06259 3.95469e-18
9989.92405 3.97405e-18
9990.78551 3.99339e-18
9991.64697 3.99856e-18
9992.50843 4.00369e-18
9993.36990 4.00186e-18
9994.23136 4.00001e-18
9995.09282 4.00346e-18
9995.95428 4.00693e-18
9996.81574 4.01357e-18
9997.67721 4.02022e-18
9998.54869 4.02222e-18
9999.41015 4.02421e-18
