# wavelength flux
3400.00359 7.84357e-18
3401.99797 5.03724e-18
3404.00237 8.55931e-18
3405.99674 5.27490e-18
3408.00114 6.43288e-18
3409.99552 2.38798e-18
3411.99992 2.15820e-18
3414.00432 2.14176e-18
3415.99870 1.82447e-18
3418.00310 1.88007e-18
3419.99748 2.03681e-18
3422.00188 2.37209e-18
3423.99626 2.26569e-18
3426.00066 1.06036e-18
3427.99503 8.66897e-19
3429.99943 6.41452e-19
3432.00383 1.85335e-18
3433.99821 3.05762e-18
3436.00261 3.69884e-18
3437.99699 3.84358e-18
3440.00139 3.48499e-18
3441.99577 3.63802e-18
3444.00017 3.43601e-18
3446.00457 1.73431e-18
3447.99895 1.21015e-18
3450.00335 3.78359e-18
3451.99772 4.60065e-18
3454.00212 1.99339e-18
3455.99650 1.76296e-18
3458.00090 2.69886e-18
3459.99528 4.56711e-18
3461.99968 4.34918e-18
3464.00408 2.67756e-18
3465.99846 1.76859e-18
3468.00286 1.36395e-18
3469.99724 1.72324e-18
3472.00164 2.37032e-18
3473.99601 1.44076e-18
3476.00041 1.90201e-18
3478.00481 2.77709e-18
3479.99919 2.77064e-18
3482.00359 2.22639e-18
3483.99797 1.66097e-18
3486.00237 1.93267e-18
3487.99675 2.48050e-18
3490.00115 1.86785e-18
3491.99553 1.77759e-18
3493.99993 2.49839e-18
3496.00433 9.32528e-19
3497.99870 1.84511e-18
3500.00310 1.46393e-18
3501.99748 1.89503e-18
3504.00188 2.34629e-18
3505.99626 2.13359e-18
3508.00066 2.02800e-18
3509.99504 2.43398e-18
3511.99944 3.12947e-18
3514.00384 3.60214e-18
3515.99822 2.88446e-18
3518.00262 2.06728e-18
3519.99699 2.92812e-18
3522.00139 2.88463e-18
3523.99577 1.94640e-18
3526.00017 2.62816e-18
3528.00457 3.91635e-18
3529.99895 3.18095e-18
3532.00335 1.85460e-18
3533.99773 2.78338e-18
3536.00213 3.54074e-18
3537.99651 3.87144e-18
3540.00091 2.97862e-18
3541.99528 3.25854e-18
3543.99968 3.56325e-18
3546.00408 3.52352e-18
3547.99846 3.14770e-18
3550.00286 3.28375e-18
3551.99724 3.86114e-18
3554.00164 3.57385e-18
3555.99602 3.37432e-18
3558.00042 3.17499e-18
3560.00482 3.40292e-18
3561.99920 3.43612e-18
3564.00360 2.71058e-18
3565.99797 1.99269e-18
3568.00237 2.38163e-18
3569.99675 3.62267e-18
3572.00115 4.19686e-18
3573.99553 3.51135e-18
3575.99993 3.01875e-18
3578.00433 3.68297e-18
3579.99871 3.23899e-18
3582.00311 3.03818e-18
3583.99749 3.39880e-18
3586.00189 3.34345e-18
3587.99626 3.65480e-18
3590.00066 3.54864e-18
3591.99504 3.08843e-18
3593.99944 3.24045e-18
3596.00384 3.67841e-18
3597.99822 3.74403e-18
3600.00262 3.54166e-18
3601.99700 3.59690e-18
3604.00140 3.64096e-18
3605.99578 4.02438e-18
3608.00018 4.15219e-18
3610.00458 4.09577e-18
3611.99895 4.16156e-18
3614.00335 4.23656e-18
3615.99773 4.30697e-18
3618.00213 4.41832e-18
3619.99651 3.81213e-18
3622.00091 3.17128e-18
3623.99529 3.40464e-18
3625.99969 3.38153e-18
3628.00409 3.31862e-18
3629.99847 3.14161e-18
3632.00287 3.28374e-18
3633.99724 3.93015e-18
3636.00164 4.35365e-18
3637.99602 3.86431e-18
3640.00042 3.24863e-18
3642.00482 3.94997e-18
3643.99920 3.93345e-18
3646.00360 4.13896e-18
3647.99798 4.40989e-18
3650.00238 4.03293e-18
3651.99676 3.86654e-18
3654.00116 4.41068e-18
3655.99553 4.60662e-18
3657.99993 4.24993e-18
3660.00433 4.32025e-18
3661.99871 4.22898e-18
3664.00311 4.39467e-18
3665.99749 4.29930e-18
3668.00189 4.57777e-18
3669.99627 4.75601e-18
3672.00067 4.42058e-18
3673.99505 4.45979e-18
3675.99945 4.85065e-18
3678.00385 4.83609e-18
3679.99822 4.61468e-18
3682.00262 4.82648e-18
3683.99700 4.92539e-18
3686.00140 5.22217e-18
3687.99578 4.84906e-18
3690.00018 4.57175e-18
3692.00458 4.92302e-18
3693.99896 5.31995e-18
3696.00336 5.08915e-18
3697.99774 4.95791e-18
3700.00214 5.22945e-18
3701.99651 5.23454e-18
3704.00091 5.19874e-18
3705.99529 4.99928e-18
3707.99969 5.16758e-18
3710.00409 5.59831e-18
3711.99847 5.36413e-18
3714.00287 5.26268e-18
3715.99725 5.29248e-18
3718.00165 5.26144e-18
3719.99603 5.20512e-18
3722.00043 5.16362e-18
3724.00483 5.15235e-18
3725.99920 5.30967e-18
3728.00360 5.56460e-18
3729.99798 5.18696e-18
3732.00238 5.09065e-18
3733.99676 5.34185e-18
3736.00116 5.47537e-18
3737.99554 5.27773e-18
3739.99994 5.22487e-18
3742.00434 5.32133e-18
3743.99872 5.20485e-18
3746.00312 5.08359e-18
3747.99749 4.88442e-18
3750.00189 4.93197e-18
3751.99627 4.95100e-18
3754.00067 4.88788e-18
3755.99505 4.89540e-18
3757.99945 5.07461e-18
3760.00385 5.28109e-18
3761.99823 5.27813e-18
3764.00263 4.91973e-18
3765.99701 4.56576e-18
3768.00141 4.79783e-18
3769.99578 4.84763e-18
3772.00018 4.87866e-18
3774.00458 4.73015e-18
3775.99896 4.69331e-18
3778.00336 4.85715e-18
3779.99774 4.73624e-18
3782.00214 4.62250e-18
3783.99652 4.65081e-18
3786.00092 4.67157e-18
3787.99530 4.77385e-18
3789.99970 4.58207e-18
3792.00410 4.45046e-18
3793.99847 4.84786e-18
3796.00287 4.76258e-18
3797.99725 4.82164e-18
3800.00165 4.88145e-18
3801.99603 5.08444e-18
3804.00043 5.05974e-18
3806.00483 4.79627e-18
3807.99921 4.77677e-18
3810.00361 4.78037e-18
3811.99799 4.70456e-18
3814.00239 4.91591e-18
3815.99676 4.82182e-18
3818.00116 4.99360e-18
3819.99554 5.11054e-18
3821.99994 5.11115e-18
3824.00434 5.20444e-18
3825.99872 5.35950e-18
3828.00312 5.44748e-18
3829.99750 5.41602e-18
3832.00190 5.19653e-18
3833.99628 5.26982e-18
3836.00068 5.54996e-18
3837.99505 5.65844e-18
3839.99945 5.59064e-18
3842.00385 5.67017e-18
3843.99823 5.90247e-18
3846.00263 5.95225e-18
3847.99701 5.82214e-18
3850.00141 5.94146e-18
3851.99579 6.29654e-18
3854.00019 6.23291e-18
3856.00459 6.22441e-18
3857.99897 6.54208e-18
3860.00337 6.61440e-18
3861.99774 6.61747e-18
3864.00214 6.64883e-18
3865.99652 6.65419e-18
3868.00092 6.85040e-18
3869.99530 7.14730e-18
3871.99970 7.17014e-18
3874.00410 7.12087e-18
3875.99848 7.26224e-18
3878.00288 7.24949e-18
3879.99726 7.53118e-18
3882.00166 7.63800e-18
3883.99603 7.70291e-18
3886.00043 7.80254e-18
3888.00483 7.84492e-18
3889.99921 7.85901e-18
3892.00361 7.95473e-18
3893.99799 8.07602e-18
3896.00239 8.08762e-18
3897.99677 8.03968e-18
3900.00117 8.24709e-18
3901.99555 8.33213e-18
3903.99995 8.44893e-18
3906.00435 8.39039e-18
3907.99872 8.43753e-18
3910.00312 8.50923e-18
3911.99750 8.66651e-18
3914.00190 8.84188e-18
3915.99628 8.60665e-18
3918.00068 8.64679e-18
3920.00508 8.71862e-18
3921.99946 8.80762e-18
3924.00386 8.76442e-18
3925.99824 8.69973e-18
3928.00264 8.74248e-18
3929.99701 8.69914e-18
3932.00141 8.67070e-18
3933.99579 8.77567e-18
3936.00019 8.86840e-18
3938.00459 8.97362e-18
3939.99897 9.06497e-18
3942.00337 9.02706e-18
3943.99775 9.10823e-18
3946.00215 9.07453e-18
3947.99653 9.18002e-18
3950.00093 9.29232e-18
3951.99530 9.46688e-18
3953.99970 9.51931e-18
3956.00410 9.39386e-18
3957.99848 9.46385e-18
3960.00288 9.56440e-18
3961.99726 9.46565e-18
3964.00166 9.22943e-18
3965.99604 9.35406e-18
3968.00044 9.41365e-18
3970.00484 9.41199e-18
3971.99922 9.33198e-18
3974.00362 9.34176e-18
3975.99799 9.37060e-18
3978.00239 9.32821e-18
3979.99677 9.48754e-18
3982.00117 9.60185e-18
3983.99555 9.52986e-18
3985.99995 9.48777e-18
3988.00435 9.44551e-18
3989.99873 9.67278e-18
3992.00313 9.57781e-18
3993.99751 9.43551e-18
3996.00191 9.58399e-18
3997.99628 9.74041e-18
4000.00068 9.50919e-18
4001.99506 9.47710e-18
4003.99946 9.46800e-18
4006.00386 9.53708e-18
4007.99824 9.46496e-18
4010.00264 9.43097e-18
4011.99702 9.45145e-18
4014.00142 9.52876e-18
4015.99580 9.44400e-18
4018.00020 9.39258e-18
4020.00460 9.39572e-18
4021.99897 9.34072e-18
4024.00337 9.34294e-18
4025.99775 9.29580e-18
4028.00215 9.31610e-18
4029.99653 9.26549e-18
4032.00093 9.22303e-18
4033.99531 9.18679e-18
4035.99971 9.13092e-18
4038.00411 9.06501e-18
4039.99849 9.02630e-18
4042.00289 8.99708e-18
4043.99726 8.95008e-18
4046.00166 8.98545e-18
4047.99604 8.84003e-18
4050.00044 8.83093e-18
4052.00484 8.78705e-18
4053.99922 8.74474e-18
4056.00362 8.73507e-18
4057.99800 8.79198e-18
4060.00240 8.85781e-18
4061.99678 8.81163e-18
4064.00118 8.70732e-18
4065.99555 8.76194e-18
4067.99995 8.72304e-18
4070.00435 8.76175e-18
4071.99873 8.83619e-18
4074.00313 8.85534e-18
4075.99751 8.76542e-18
4078.00191 8.72555e-18
4079.99629 8.73288e-18
4082.00069 8.75128e-18
4083.99507 8.76458e-18
4085.99947 8.74165e-18
4088.00387 8.72736e-18
4089.99824 8.76013e-18
4092.00264 8.74642e-18
4093.99702 8.76429e-18
4096.00142 8.78100e-18
4097.99580 8.73358e-18
4100.00020 8.70604e-18
4102.00460 8.71435e-18
4103.99898 8.73134e-18
4106.00338 8.75343e-18
4107.99776 8.76885e-18
4110.00216 8.71897e-18
4111.99653 8.75535e-18
4114.00093 8.78633e-18
4115.99531 8.79266e-18
4117.99971 8.82115e-18
4120.00411 8.84847e-18
4121.99849 8.87822e-18
4124.00289 8.90420e-18
4125.99727 8.91774e-18
4128.00167 8.91451e-18
4129.99605 8.92642e-18
4132.00045 8.98760e-18
4134.00485 9.01165e-18
4135.99922 8.98152e-18
4138.00362 8.99129e-18
4139.99800 9.03209e-18
4142.00240 9.04832e-18
4143.99678 9.06292e-18
4146.00118 9.07886e-18
4147.99556 9.05140e-18
4149.99996 9.01598e-18
4152.00436 9.05894e-18
4153.99874 9.12869e-18
4156.00314 9.12676e-18
4157.99751 9.10659e-18
4160.00191 9.12123e-18
4161.99629 9.20365e-18
4164.00069 9.25412e-18
4165.99507 9.25472e-18
4167.99947 9.26882e-18
4170.00387 9.28961e-18
4171.99825 9.26083e-18
4174.00265 9.25156e-18
4175.99703 9.25192e-18
4178.00143 9.28118e-18
4179.99580 9.26309e-18
4182.00020 9.33098e-18
4184.00460 9.38721e-18
4185.99898 9.41425e-18
4188.00338 9.45143e-18
4189.99776 9.51564e-18
4192.00216 9.58035e-18
4193.99654 9.56770e-18
4196.00094 9.57120e-18
4197.99532 9.69592e-18
4199.99972 9.77747e-18
4202.00412 9.80669e-18
4203.99849 9.80975e-18
4206.00289 9.83700e-18
4207.99727 9.89154e-18
4210.00167 9.96513e-18
4211.99605 1.00473e-17
4214.00045 1.00605e-17
4216.00485 1.01013e-17
4217.99923 1.00892e-17
4220.00363 1.02304e-17
4221.99801 1.02666e-17
4224.00241 1.03529e-17
4225.99678 1.04434e-17
4228.00118 1.05376e-17
4229.99556 1.05722e-17
4231.99996 1.05245e-17
4234.00436 1.05133e-17
4235.99874 1.05457e-17
4238.00314 1.05921e-17
4239.99752 1.05803e-17
4242.00192 1.05650e-17
4243.99630 1.06406e-17
4246.00070 1.07251e-17
4247.99507 1.07360e-17
4249.99947 1.07245e-17
4252.00387 1.07501e-17
4253.99825 1.07730e-17
4256.00265 1.07574e-17
4257.99703 1.07835e-17
4260.00143 1.07820e-17
4261.99581 1.08338e-17
4264.00021 1.08572e-17
4266.00461 1.08430e-17
4267.99899 1.08221e-17
4270.00339 1.08382e-17
4271.99776 1.08779e-17
4274.00216 1.09233e-17
4275.99654 1.09473e-17
4278.00094 1.09660e-17
4279.99532 1.10062e-17
4281.99972 1.10796e-17
4284.00412 1.10997e-17
4285.99850 1.11035e-17
4288.00290 1.11116e-17
4289.99728 1.11646e-17
4292.00168 1.12588e-17
4293.99605 1.13091e-17
4296.00045 1.13027e-17
4297.99483 1.13322e-17
4299.99923 1.13701e-17
4302.00363 1.13990e-17
4303.99801 1.14565e-17
4306.00241 1.13875e-17
4307.99679 1.13638e-17
4310.00119 1.14222e-17
4311.99557 1.14561e-17
4313.99997 1.14347e-17
4316.00437 1.14585e-17
4317.99874 1.15621e-17
4320.00314 1.16085e-17
4321.99752 1.16509e-17
4324.00192 1.17009e-17
4325.99630 1.17166e-17
4328.00070 1.17070e-17
4330.00510 1.17666e-17
4331.99948 1.17866e-17
4334.00388 1.17800e-17
4335.99826 1.17662e-17
4338.00266 1.17465e-17
4339.99703 1.17881e-17
4342.00143 1.18868e-17
4343.99581 1.18882e-17
4346.00021 1.18849e-17
4348.00461 1.18788e-17
4349.99899 1.18854e-17
4352.00339 1.18343e-17
4353.99777 1.18249e-17
4356.00217 1.18529e-17
4357.99655 1.18716e-17
4360.00095 1.18896e-17
4361.99532 1.19254e-17
4363.99972 1.20302e-17
4366.00412 1.21239e-17
4367.99850 1.21625e-17
4370.00290 1.22020e-17
4371.99728 1.22362e-17
4374.00168 1.22753e-17
4375.99606 1.23546e-17
4378.00046 1.24375e-17
4380.00486 1.24871e-17
4381.99924 1.25559e-17
4384.00364 1.26439e-17
4385.99801 1.27032e-17
4388.00241 1.27544e-17
4389.99679 1.28286e-17
4392.00119 1.29110e-17
4393.99557 1.30221e-17
4395.99997 1.30788e-17
4398.00437 1.31434e-17
4399.99875 1.32374e-17
4402.00315 1.33407e-17
4403.99753 1.34273e-17
4406.00193 1.34759e-17
4407.99630 1.34929e-17
4410.00070 1.35689e-17
4411.99508 1.36676e-17
4413.99948 1.37041e-17
4416.00388 1.37208e-17
4417.99826 1.37725e-17
4420.00266 1.38818e-17
4421.99704 1.39868e-17
4424.00144 1.40062e-17
4425.99582 1.40482e-17
4428.00022 1.41765e-17
4430.00462 1.42040e-17
4431.99899 1.42194e-17
4434.00339 1.43421e-17
4435.99777 1.44590e-17
4438.00217 1.45422e-17
4439.99655 1.45851e-17
4442.00095 1.46728e-17
4443.99533 1.48026e-17
4445.99973 1.49169e-17
4448.00413 1.50547e-17
4449.99851 1.52014e-17
4452.00291 1.53467e-17
4453.99728 1.54446e-17
4456.00168 1.55398e-17
4457.99606 1.57330e-17
4460.00046 1.58639e-17
4462.00486 1.59595e-17
4463.99924 1.60916e-17
4466.00364 1.62218e-17
4467.99802 1.63389e-17
4470.00242 1.64914e-17
4471.99680 1.65579e-17
4474.00120 1.66405e-17
4475.99557 1.68002e-17
4477.99997 1.68406e-17
4480.00437 1.69733e-17
4481.99875 1.70651e-17
4484.00315 1.71763e-17
4485.99753 1.73457e-17
4488.00193 1.74841e-17
4489.99631 1.75986e-17
4492.00071 1.77941e-17
4493.99509 1.79342e-17
4495.99949 1.79989e-17
4498.00389 1.81607e-17
4499.99826 1.82820e-17
4502.00266 1.85337e-17
4503.99704 1.86676e-17
4506.00144 1.87819e-17
4507.99582 1.88728e-17
4510.00022 1.89640e-17
4512.00462 1.90671e-17
4513.99900 1.91342e-17
4516.00340 1.92027e-17
4517.99778 1.92611e-17
4520.00218 1.93453e-17
4521.99655 1.93737e-17
4524.00095 1.94448e-17
4525.99533 1.95650e-17
4527.99973 1.96490e-17
4530.00413 1.97122e-17
4531.99851 1.98204e-17
4534.00291 1.99170e-17
4535.99729 2.00044e-17
4538.00169 2.01121e-17
4539.99607 2.02336e-17
4542.00047 2.03291e-17
4543.99484 2.03551e-17
4545.99924 2.03835e-17
4548.00364 2.04476e-17
4549.99802 2.04851e-17
4552.00242 2.05170e-17
4553.99680 2.05561e-17
4556.00120 2.05875e-17
4557.99558 2.06244e-17
4559.99998 2.06656e-17
4562.00438 2.06991e-17
4563.99876 2.07325e-17
4566.00316 2.07585e-17
4567.99753 2.07669e-17
4570.00193 2.07544e-17
4571.99631 2.07553e-17
4574.00071 2.08010e-17
4576.00511 2.08538e-17
4577.99949 2.08730e-17
4580.00389 2.09037e-17
4581.99827 2.09815e-17
4584.00267 2.10587e-17
4585.99705 2.11210e-17
4588.00145 2.11894e-17
4589.99582 2.12349e-17
4592.00022 2.12528e-17
4594.00462 2.12708e-17
4595.99900 2.13168e-17
4598.00340 2.13084e-17
4599.99778 2.12618e-17
4602.00218 2.11811e-17
4603.99656 2.11162e-17
4606.00096 2.11095e-17
4607.99534 2.10967e-17
4609.99974 2.10665e-17
4612.00414 2.10006e-17
4613.99851 2.09286e-17
4616.00291 2.08593e-17
4617.99729 2.08021e-17
4620.00169 2.07528e-17
4621.99607 2.06613e-17
4624.00047 2.05686e-17
4626.00487 2.04812e-17
4627.99925 2.03815e-17
4630.00365 2.02884e-17
4631.99803 2.01479e-17
4634.00243 2.00496e-17
4635.99680 1.99826e-17
4638.00120 1.99233e-17
4639.99558 1.98572e-17
4641.99998 1.98010e-17
4644.00438 1.97215e-17
4645.99876 1.96553e-17
4648.00316 1.95762e-17
4649.99754 1.95076e-17
4652.00194 1.94287e-17
4653.99632 1.93197e-17
4656.00072 1.92178e-17
4657.99509 1.90991e-17
4659.99949 1.89875e-17
4662.00389 1.88630e-17
4663.99827 1.87418e-17
4666.00267 1.86059e-17
4667.99705 1.84929e-17
4670.00145 1.83955e-17
4671.99583 1.83100e-17
4674.00023 1.81911e-17
4676.00463 1.80774e-17
4677.99901 1.80135e-17
4680.00341 1.79133e-17
4681.99778 1.78054e-17
4684.00218 1.77416e-17
4685.99656 1.76554e-17
4688.00096 1.75666e-17
4689.99534 1.74925e-17
4691.99974 1.73983e-17
4694.00414 1.72934e-17
4695.99852 1.72041e-17
4698.00292 1.71189e-17
4699.99730 1.70256e-17
4702.00170 1.69184e-17
4703.99607 1.68417e-17
4706.00047 1.67799e-17
4708.00487 1.67133e-17
4709.99925 1.66246e-17
4712.00365 1.65594e-17
4713.99803 1.65297e-17
4716.00243 1.64848e-17
4717.99681 1.64058e-17
4720.00121 1.63628e-17
4721.99559 1.63064e-17
4723.99999 1.62501e-17
4726.00439 1.62112e-17
4727.99876 1.62061e-17
4730.00316 1.62082e-17
4731.99754 1.61854e-17
4734.00194 1.61885e-17
4735.99632 1.62053e-17
4738.00072 1.61994e-17
4739.99510 1.62014e-17
4741.99950 1.62152e-17
4744.00390 1.62204e-17
4745.99828 1.61872e-17
4748.00268 1.61528e-17
4749.99705 1.61487e-17
4752.00145 1.61105e-17
4753.99583 1.60728e-17
4756.00023 1.60216e-17
4758.00463 1.59992e-17
4759.99901 1.59677e-17
4762.00341 1.58961e-17
4763.99779 1.58159e-17
4766.00219 1.57439e-17
4767.99657 1.57043e-17
4770.00097 1.56511e-17
4771.99534 1.56185e-17
4773.99974 1.56118e-17
4776.00414 1.56195e-17
4777.99852 1.56226e-17
4780.00292 1.56444e-17
4781.99730 1.56651e-17
4784.00170 1.57011e-17
4785.99608 1.57444e-17
4788.00048 1.57856e-17
4789.99486 1.57964e-17
4791.99926 1.58555e-17
4794.00366 1.59301e-17
4795.99803 1.59876e-17
4798.00243 1.60415e-17
4799.99681 1.61121e-17
4802.00121 1.61713e-17
4803.99559 1.62326e-17
4805.99999 1.62993e-17
4808.00439 1.63679e-17
4809.99877 1.64119e-17
4812.00317 1.64668e-17
4813.99755 1.64931e-17
4816.00195 1.65153e-17
4817.99632 1.65408e-17
4820.00072 1.65789e-17
4822.00512 1.65742e-17
4823.99950 1.65605e-17
4826.00390 1.65753e-17
4827.99828 1.66243e-17
4830.00268 1.66258e-17
4831.99706 1.66296e-17
4834.00146 1.66399e-17
4835.99584 1.66265e-17
4838.00024 1.65955e-17
4840.00464 1.65720e-17
4841.99901 1.65652e-17
4844.00341 1.65678e-17
4845.99779 1.65496e-17
4848.00219 1.65116e-17
4849.99657 1.64647e-17
4852.00097 1.64462e-17
4853.99535 1.64085e-17
4855.99975 1.63493e-17
4858.00415 1.63118e-17
4859.99853 1.63074e-17
4862.00293 1.62852e-17
4863.99730 1.62753e-17
4866.00170 1.63364e-17
4867.99608 1.63989e-17
4870.00048 1.64371e-17
4872.00488 1.64731e-17
4873.99926 1.65357e-17
4876.00366 1.66270e-17
4877.99804 1.66867e-17
4880.00244 1.67205e-17
4881.99682 1.67530e-17
4884.00122 1.68000e-17
4885.99559 1.68568e-17
4887.99999 1.69051e-17
4890.00439 1.69571e-17
4891.99877 1.69807e-17
4894.00317 1.70119e-17
4895.99755 1.70527e-17
4898.00195 1.71027e-17
4899.99633 1.71254e-17
4902.00073 1.71348e-17
4903.99511 1.71360e-17
4905.99951 1.71262e-17
4908.00391 1.70973e-17
4909.99828 1.70966e-17
4912.00268 1.70933e-17
4913.99706 1.70555e-17
4916.00146 1.70209e-17
4917.99584 1.70010e-17
4920.00024 1.69801e-17
4922.00464 1.69520e-17
4923.99902 1.69266e-17
4926.00342 1.69255e-17
4927.99780 1.69452e-17
4930.00220 1.69573e-17
4931.99657 1.70021e-17
4934.00097 1.70680e-17
4935.99535 1.71099e-17
4937.99975 1.71536e-17
4940.00415 1.71900e-17
4941.99853 1.72100e-17
4944.00293 1.72017e-17
4945.99731 1.72292e-17
4948.00171 1.72499e-17
4949.99609 1.72567e-17
4952.00049 1.72416e-17
4953.99486 1.72511e-17
4955.99926 1.72786e-17
4958.00366 1.72883e-17
4959.99804 1.72588e-17
4962.00244 1.72059e-17
4963.99682 1.71918e-17
4966.00122 1.72132e-17
4967.99560 1.71973e-17
4970.00000 1.71535e-17
4972.00440 1.71231e-17
4973.99878 1.70797e-17
4976.00318 1.70309e-17
4977.99755 1.69922e-17
4980.00195 1.69748e-17
4981.99633 1.69647e-17
4984.00073 1.69620e-17
4985.99511 1.69282e-17
4987.99951 1.69167e-17
4990.00391 1.68965e-17
4991.99829 1.68857e-17
4994.00269 1.68813e-17
4995.99707 1.68344e-17
4998.00147 1.67766e-17
4999.99584 1.67464e-17
5002.00024 1.67112e-17
5004.00464 1.66817e-17
5005.99902 1.66878e-17
5008.00342 1.66865e-17
5009.99780 1.66921e-17
5012.00220 1.67075e-17
5013.99658 1.67338e-17
5016.00098 1.67439e-17
5017.99536 1.67593e-17
5019.99976 1.67759e-17
5022.00416 1.67913e-17
5023.99853 1.68328e-17
5026.00293 1.68745e-17
5027.99731 1.68868e-17
5030.00171 1.68846e-17
5031.99609 1.69327e-17
5034.00049 1.69722e-17
5036.00489 1.70089e-17
5037.99927 1.70709e-17
5040.00367 1.71387e-17
5041.99805 1.72477e-17
5044.00245 1.73283e-17
5045.99682 1.73845e-17
5048.00122 1.74516e-17
5049.99560 1.75116e-17
5052.00000 1.75445e-17
5054.00440 1.75697e-17
5055.99878 1.76195e-17
5058.00318 1.76680e-17
5059.99756 1.76692e-17
5062.00196 1.76780e-17
5063.99634 1.77211e-17
5066.00074 1.77840e-17
5068.00514 1.78192e-17
5069.99951 1.78468e-17
5072.00391 1.78810e-17
5073.99829 1.79360e-17
5076.00269 1.79804e-17
5077.99707 1.80521e-17
5080.00147 1.81240e-17
5081.99585 1.81839e-17
5084.00025 1.82145e-17
5086.00465 1.82525e-17
5087.99903 1.83019e-17
5090.00343 1.83542e-17
5091.99780 1.83921e-17
5094.00220 1.84378e-17
5095.99658 1.84674e-17
5098.00098 1.84817e-17
5099.99536 1.85428e-17
5101.99976 1.85685e-17
5104.00416 1.85876e-17
5105.99854 1.86166e-17
5108.00294 1.86403e-17
5109.99732 1.86828e-17
5112.00172 1.87053e-17
5113.99609 1.87680e-17
5116.00049 1.88125e-17
5118.00489 1.88513e-17
5119.99927 1.88589e-17
5122.00367 1.88737e-17
5123.99805 1.88948e-17
5126.00245 1.89303e-17
5127.99683 1.90000e-17
5130.00123 1.90452e-17
5131.99561 1.90953e-17
5134.00001 1.91464e-17
5136.00441 1.92018e-17
5137.99878 1.92579e-17
5140.00318 1.93171e-17
5141.99756 1.93708e-17
5144.00196 1.93865e-17
5145.99634 1.94091e-17
5148.00074 1.94227e-17
5149.99512 1.94561e-17
5151.99952 1.94970e-17
5154.00392 1.95365e-17
5155.99830 1.95837e-17
5158.00270 1.96287e-17
5159.99707 1.96649e-17
5162.00147 1.97497e-17
5163.99585 1.98239e-17
5166.00025 1.99013e-17
5168.00465 1.99877e-17
5169.99903 2.00872e-17
5172.00343 2.01874e-17
5173.99781 2.03010e-17
5176.00221 2.04144e-17
5177.99659 2.05346e-17
5180.00099 2.06624e-17
5181.99536 2.07732e-17
5183.99976 2.08590e-17
5186.00416 2.09762e-17
5187.99854 2.11102e-17
5190.00294 2.12275e-17
5191.99732 2.13279e-17
5194.00172 2.14202e-17
5195.99610 2.15035e-17
5198.00050 2.15922e-17
5199.99488 2.16778e-17
5201.99928 2.17478e-17
5204.00368 2.18090e-17
5205.99805 2.19102e-17
5208.00245 2.19914e-17
5209.99683 2.20593e-17
5212.00123 2.21388e-17
5213.99561 2.22241e-17
5216.00001 2.22875e-17
5218.00441 2.23531e-17
5219.99879 2.24580e-17
5222.00319 2.25345e-17
5223.99757 2.25727e-17
5226.00197 2.26255e-17
5227.99634 2.27075e-17
5230.00074 2.27820e-17
5231.99512 2.28519e-17
5233.99952 2.29338e-17
5236.00392 2.30119e-17
5237.99830 2.30508e-17
5240.00270 2.30773e-17
5241.99708 2.31313e-17
5244.00148 2.32011e-17
5245.99586 2.32608e-17
5248.00026 2.33294e-17
5250.00466 2.33612e-17
5251.99903 2.33742e-17
5254.00343 2.34087e-17
5255.99781 2.34895e-17
5258.00221 2.35419e-17
5259.99659 2.35812e-17
5262.00099 2.36434e-17
5263.99537 2.36987e-17
5265.99977 2.37471e-17
5268.00417 2.37890e-17
5269.99855 2.38777e-17
5272.00295 2.39865e-17
5273.99732 2.40827e-17
5276.00172 2.41728e-17
5277.99610 2.42585e-17
5280.00050 2.43357e-17
5282.00490 2.44017e-17
5283.99928 2.44731e-17
5286.00368 2.45641e-17
5287.99806 2.46468e-17
5290.00246 2.47056e-17
5291.99684 2.47331e-17
5294.00124 2.47584e-17
5295.99561 2.48122e-17
5298.00001 2.48508e-17
5300.00441 2.48568e-17
5301.99879 2.48805e-17
5304.00319 2.49048e-17
5305.99757 2.49378e-17
5308.00197 2.49535e-17
5309.99635 2.49603e-17
5312.00075 2.49726e-17
5313.99513 2.49612e-17
5315.99953 2.49289e-17
5318.00393 2.49215e-17
5319.99830 2.49247e-17
5322.00270 2.49300e-17
5323.99708 2.49239e-17
5326.00148 2.49251e-17
5327.99586 2.49548e-17
5330.00026 2.49324e-17
5332.00466 2.49483e-17
5333.99904 2.49611e-17
5336.00344 2.49715e-17
5337.99782 2.50003e-17
5340.00222 2.50312e-17
5341.99659 2.50522e-17
5344.00099 2.50674e-17
5345.99537 2.51276e-17
5347.99977 2.51911e-17
5350.00417 2.52216e-17
5351.99855 2.52360e-17
5354.00295 2.52810e-17
5355.99733 2.53165e-17
5358.00173 2.53237e-17
5359.99611 2.53418e-17
5362.00051 2.53806e-17
5364.00491 2.54246e-17
5365.99928 2.54714e-17
5368.00368 2.55327e-17
5369.99806 2.56213e-17
5372.00246 2.56978e-17
5373.99684 2.57718e-17
5376.00124 2.58105e-17
5377.99562 2.58680e-17
5380.00002 2.59542e-17
5382.00442 2.60416e-17
5383.99880 2.61079e-17
5386.00320 2.61722e-17
5387.99757 2.62062e-17
5390.00197 2.62381e-17
5391.99635 2.62650e-17
5394.00075 2.63284e-17
5395.99513 2.63998e-17
5397.99953 2.64563e-17
5400.00393 2.65198e-17
5401.99831 2.65867e-17
5404.00271 2.66496e-17
5405.99709 2.66855e-17
5408.00149 2.67512e-17
5409.99586 2.68114e-17
5412.00026 2.68285e-17
5414.00466 2.68399e-17
5415.99904 2.68768e-17
5418.00344 2.69304e-17
5419.99782 2.69662e-17
5422.00222 2.70081e-17
5423.99660 2.70546e-17
5426.00100 2.71140e-17
5427.99538 2.71918e-17
5429.99978 2.72284e-17
5432.00418 2.72683e-17
5433.99855 2.73373e-17
5436.00295 2.74003e-17
5437.99733 2.74318e-17
5440.00173 2.74633e-17
5441.99611 2.75069e-17
5444.00051 2.75407e-17
5445.99489 2.75335e-17
5447.99929 2.75214e-17
5450.00369 2.75185e-17
5451.99807 2.75178e-17
5454.00247 2.75168e-17
5455.99684 2.75154e-17
5458.00124 2.75038e-17
5459.99562 2.74752e-17
5462.00002 2.74433e-17
5464.00442 2.74082e-17
5465.99880 2.73452e-17
5468.00320 2.72819e-17
5469.99758 2.72208e-17
5472.00198 2.71693e-17
5473.99636 2.71025e-17
5476.00076 2.70100e-17
5477.99513 2.69331e-17
5479.99953 2.69050e-17
5482.00393 2.68430e-17
5483.99831 2.67627e-17
5486.00271 2.67291e-17
5487.99709 2.67040e-17
5490.00149 2.66477e-17
5491.99587 2.66136e-17
5494.00027 2.65952e-17
5496.00467 2.65546e-17
5497.99905 2.65098e-17
5500.00345 2.64885e-17
5501.99782 2.64699e-17
5504.00222 2.64490e-17
5505.99660 2.64246e-17
5508.00100 2.64044e-17
5509.99538 2.63459e-17
5511.99978 2.63149e-17
5514.00418 2.62748e-17
5515.99856 2.62511e-17
5518.00296 2.61964e-17
5519.99734 2.61521e-17
5522.00174 2.61141e-17
5523.99611 2.60856e-17
5526.00051 2.60714e-17
5528.00491 2.60556e-17
5529.99929 2.59832e-17
5532.00369 2.59169e-17
5533.99807 2.58955e-17
5536.00247 2.58606e-17
5537.99685 2.57897e-17
5540.00125 2.57454e-17
5541.99563 2.57017e-17
5544.00003 2.56543e-17
5546.00443 2.56239e-17
5547.99880 2.55726e-17
5550.00320 2.55295e-17
5551.99758 2.55064e-17
5554.00198 2.54732e-17
5555.99636 2.54205e-17
5558.00076 2.53714e-17
5559.99514 2.53631e-17
5561.99954 2.53094e-17
5564.00394 2.52394e-17
5565.99832 2.51627e-17
5568.00272 2.51186e-17
5569.99709 2.51013e-17
5572.00149 2.50657e-17
5573.99587 2.50162e-17
5576.00027 2.49491e-17
5578.00467 2.48978e-17
5579.99905 2.48609e-17
5582.00345 2.47694e-17
5583.99783 2.46809e-17
5586.00223 2.46199e-17
5587.99661 2.45577e-17
5590.00101 2.44897e-17
5591.99538 2.44226e-17
5593.99978 2.43634e-17
5596.00418 2.42873e-17
5597.99856 2.42536e-17
5600.00296 2.42402e-17
5601.99734 2.41908e-17
5604.00174 2.41026e-17
5605.99612 2.40420e-17
5608.00052 2.39486e-17
5610.00492 2.38149e-17
5611.99930 2.36933e-17
5614.00370 2.35789e-17
5615.99807 2.34701e-17
5618.00247 2.33719e-17
5619.99685 2.32433e-17
5622.00125 2.31101e-17
5623.99563 2.30144e-17
5626.00003 2.29363e-17
5628.00443 2.28478e-17
5629.99881 2.27791e-17
5632.00321 2.26846e-17
5633.99759 2.25761e-17
5636.00199 2.25000e-17
5637.99636 2.23986e-17
5640.00076 2.23239e-17
5641.99514 2.22119e-17
5643.99954 2.21016e-17
5646.00394 2.19886e-17
5647.99832 2.18810e-17
5650.00272 2.17965e-17
5651.99710 2.17234e-17
5654.00150 2.16221e-17
5655.99588 2.15011e-17
5658.00028 2.13659e-17
5660.00468 2.12587e-17
5661.99905 2.12068e-17
5664.00345 2.11177e-17
5665.99783 2.10059e-17
5668.00223 2.09131e-17
5669.99661 2.08340e-17
5672.00101 2.07553e-17
5673.99539 2.06793e-17
5675.99979 2.06175e-17
5678.00419 2.05543e-17
5679.99857 2.04821e-17
5682.00297 2.04088e-17
5683.99734 2.03940e-17
5686.00174 2.03624e-17
5687.99612 2.03015e-17
5690.00052 2.02342e-17
5691.99490 2.01608e-17
5693.99930 2.01119e-17
5696.00370 2.00772e-17
5697.99808 2.00633e-17
5700.00248 2.00517e-17
5701.99686 2.00188e-17
5704.00126 1.99823e-17
5705.99563 1.99931e-17
5708.00003 1.99951e-17
5710.00443 1.99862e-17
5711.99881 1.99804e-17
5714.00321 2.00030e-17
5715.99759 2.00119e-17
5718.00199 2.00236e-17
5719.99637 2.00427e-17
5722.00077 2.00931e-17
5723.99515 2.01594e-17
5725.99955 2.02054e-17
5728.00395 2.02418e-17
5729.99832 2.02839e-17
5732.00272 2.03226e-17
5733.99710 2.03623e-17
5736.00150 2.03835e-17
5737.99588 2.04038e-17
5740.00028 2.04576e-17
5742.00468 2.04875e-17
5743.99906 2.04847e-17
5746.00346 2.04612e-17
5747.99784 2.04864e-17
5750.00224 2.05442e-17
5751.99661 2.05821e-17
5754.00101 2.06030e-17
5755.99539 2.06296e-17
5757.99979 2.06649e-17
5760.00419 2.07089e-17
5761.99857 2.07531e-17
5764.00297 2.07652e-17
5765.99735 2.07983e-17
5768.00175 2.08448e-17
5769.99613 2.08651e-17
5772.00053 2.08632e-17
5774.00493 2.08452e-17
5775.99930 2.08429e-17
5778.00370 2.08509e-17
5779.99808 2.08779e-17
5782.00248 2.09227e-17
5783.99686 2.09506e-17
5786.00126 2.09717e-17
5787.99564 2.10107e-17
5790.00004 2.10603e-17
5792.00444 2.10748e-17
5793.99882 2.10733e-17
5796.00322 2.10684e-17
5797.99759 2.10707e-17
5800.00199 2.10837e-17
5801.99637 2.10549e-17
5804.00077 2.10580e-17
5805.99515 2.10854e-17
5807.99955 2.10860e-17
5810.00395 2.10788e-17
5811.99833 2.10795e-17
5814.00273 2.10825e-17
5815.99711 2.10532e-17
5818.00151 2.10481e-17
5819.99588 2.10483e-17
5822.00028 2.10366e-17
5824.00468 2.10277e-17
5825.99906 2.10131e-17
5828.00346 2.09938e-17
5829.99784 2.09719e-17
5832.00224 2.09634e-17
5833.99662 2.09578e-17
5836.00102 2.09255e-17
5837.99540 2.08869e-17
5839.99980 2.08618e-17
5842.00420 2.08357e-17
5843.99857 2.08113e-17
5846.00297 2.07890e-17
5847.99735 2.07581e-17
5850.00175 2.07366e-17
5851.99613 2.07297e-17
5854.00053 2.07323e-17
5856.00493 2.07288e-17
5857.99931 2.07426e-17
5860.00371 2.07803e-17
5861.99809 2.08006e-17
5864.00249 2.08123e-17
5865.99686 2.08289e-17
5868.00126 2.08478e-17
5869.99564 2.08560e-17
5872.00004 2.08663e-17
5874.00444 2.08875e-17
5875.99882 2.08799e-17
5878.00322 2.08771e-17
5879.99760 2.08877e-17
5882.00200 2.08535e-17
5883.99638 2.07946e-17
5886.00078 2.07287e-17
5887.99515 2.06423e-17
5889.99955 2.05053e-17
5892.00395 2.03749e-17
5893.99833 2.03018e-17
5896.00273 2.03058e-17
5897.99711 2.03167e-17
5900.00151 2.03302e-17
5901.99589 2.03424e-17
5904.00029 2.03560e-17
5906.00469 2.03866e-17
5907.99907 2.04252e-17
5910.00347 2.04477e-17
5911.99784 2.04605e-17
5914.00224 2.04658e-17
5915.99662 2.04568e-17
5918.00102 2.04539e-17
5919.99540 2.04455e-17
5921.99980 2.04120e-17
5924.00420 2.03972e-17
5925.99858 2.03953e-17
5928.00298 2.04076e-17
5929.99736 2.03985e-17
5932.00176 2.03742e-17
5933.99613 2.03354e-17
5936.00053 2.03105e-17
5937.99491 2.02997e-17
5939.99931 2.02986e-17
5942.00371 2.02858e-17
5943.99809 2.02346e-17
5946.00249 2.01714e-17
5947.99687 2.01302e-17
5950.00127 2.00769e-17
5951.99565 1.99947e-17
5954.00005 1.99406e-17
5956.00445 1.98971e-17
5957.99882 1.98453e-17
5960.00322 1.97777e-17
5961.99760 1.97256e-17
5964.00200 1.97086e-17
5965.99638 1.97091e-17
5968.00078 1.96780e-17
5970.00518 1.96374e-17
5971.99956 1.96210e-17
5974.00396 1.96209e-17
5975.99834 1.96254e-17
5978.00274 1.95968e-17
5979.99711 1.95809e-17
5982.00151 1.95937e-17
5983.99589 1.96352e-17
5986.00029 1.96480e-17
5988.00469 1.96587e-17
5989.99907 1.96699e-17
5992.00347 1.96675e-17
5993.99785 1.96537e-17
5996.00225 1.96497e-17
5997.99663 1.96634e-17
6000.00103 1.96473e-17
6001.99540 1.96049e-17
6003.99980 1.95872e-17
6006.00420 1.96141e-17
6007.99858 1.96092e-17
6010.00298 1.95832e-17
6011.99736 1.95674e-17
6014.00176 1.95831e-17
6015.99614 1.95808e-17
6018.00054 1.95746e-17
6020.00494 1.95504e-17
6021.99932 1.95093e-17
6024.00372 1.94915e-17
6025.99809 1.94759e-17
6028.00249 1.94508e-17
6029.99687 1.94301e-17
6032.00127 1.93954e-17
6033.99565 1.93456e-17
6036.00005 1.93179e-17
6038.00445 1.93065e-17
6039.99883 1.92880e-17
6042.00323 1.92282e-17
6043.99761 1.92138e-17
6046.00201 1.92008e-17
6047.99638 1.91392e-17
6050.00078 1.90579e-17
6051.99516 1.90224e-17
6053.99956 1.90192e-17
6056.00396 1.89882e-17
6057.99834 1.89363e-17
6060.00274 1.89179e-17
6061.99712 1.89042e-17
6064.00152 1.89044e-17
6065.99590 1.89069e-17
6068.00030 1.89088e-17
6070.00470 1.88877e-17
6071.99907 1.88710e-17
6074.00347 1.88529e-17
6075.99785 1.88332e-17
6078.00225 1.88119e-17
6079.99663 1.87812e-17
6082.00103 1.87672e-17
6083.99541 1.87494e-17
6085.99981 1.87354e-17
6088.00421 1.87078e-17
6089.99859 1.86807e-17
6092.00299 1.86644e-17
6093.99736 1.86408e-17
6096.00176 1.86256e-17
6097.99614 1.85997e-17
6100.00054 1.85669e-17
6101.99492 1.85255e-17
6103.99932 1.85017e-17
6106.00372 1.84700e-17
6107.99810 1.84237e-17
6110.00250 1.83838e-17
6111.99688 1.83451e-17
6114.00128 1.82951e-17
6115.99565 1.82860e-17
6118.00005 1.82806e-17
6120.00445 1.82468e-17
6121.99883 1.82201e-17
6124.00323 1.82084e-17
6125.99761 1.82077e-17
6128.00201 1.82005e-17
6129.99639 1.81834e-17
6132.00079 1.81448e-17
6133.99517 1.81048e-17
6135.99957 1.80890e-17
6138.00397 1.80562e-17
6139.99834 1.80022e-17
6142.00274 1.79652e-17
6143.99712 1.79149e-17
6146.00152 1.78674e-17
6147.99590 1.77954e-17
6150.00030 1.77185e-17
6152.00470 1.76535e-17
6153.99908 1.75714e-17
6156.00348 1.74923e-17
6157.99786 1.74219e-17
6160.00226 1.73508e-17
6161.99663 1.72734e-17
6164.00103 1.72011e-17
6165.99541 1.71457e-17
6167.99981 1.70844e-17
6170.00421 1.70386e-17
6171.99859 1.70002e-17
6174.00299 1.69723e-17
6175.99737 1.69387e-17
6178.00177 1.68904e-17
6179.99615 1.68551e-17
6182.00055 1.68342e-17
6183.99492 1.67981e-17
6185.99932 1.67866e-17
6188.00372 1.67940e-17
6189.99810 1.67874e-17
6192.00250 1.67825e-17
6193.99688 1.67854e-17
6196.00128 1.67670e-17
6197.99566 1.67602e-17
6200.00006 1.67710e-17
6202.00446 1.67714e-17
6203.99884 1.67536e-17
6206.00324 1.67447e-17
6207.99761 1.67523e-17
6210.00201 1.67550e-17
6211.99639 1.67804e-17
6214.00079 1.68091e-17
6215.99517 1.68311e-17
6217.99957 1.68497e-17
6220.00397 1.68865e-17
6221.99835 1.69086e-17
6224.00275 1.69501e-17
6225.99713 1.69841e-17
6228.00153 1.70156e-17
6229.99590 1.70458e-17
6232.00030 1.70890e-17
6234.00470 1.71326e-17
6235.99908 1.71797e-17
6238.00348 1.72268e-17
6239.99786 1.72763e-17
6242.00226 1.73434e-17
6243.99664 1.74254e-17
6246.00104 1.74807e-17
6247.99542 1.75265e-17
6249.99982 1.75899e-17
6252.00422 1.76453e-17
6253.99859 1.76848e-17
6256.00299 1.77199e-17
6257.99737 1.77705e-17
6260.00177 1.78335e-17
6261.99615 1.78930e-17
6264.00055 1.79446e-17
6266.00495 1.80146e-17
6267.99933 1.80936e-17
6270.00373 1.81676e-17
6271.99811 1.82024e-17
6274.00251 1.82197e-17
6275.99688 1.82315e-17
6278.00128 1.82351e-17
6279.99566 1.82517e-17
6282.00006 1.82568e-17
6284.00446 1.82964e-17
6285.99884 1.83678e-17
6288.00324 1.84454e-17
6289.99762 1.85412e-17
6292.00202 1.86362e-17
6293.99640 1.86920e-17
6296.00080 1.87368e-17
6297.99517 1.87885e-17
6299.99957 1.88427e-17
6302.00397 1.88745e-17
6303.99835 1.89055e-17
6306.00275 1.89330e-17
6307.99713 1.89753e-17
6310.00153 1.90410e-17
6311.99591 1.90960e-17
6314.00031 1.91247e-17
6316.00471 1.91801e-17
6317.99909 1.92320e-17
6320.00349 1.92707e-17
6321.99786 1.93101e-17
6324.00226 1.93177e-17
6325.99664 1.93281e-17
6328.00104 1.93672e-17
6329.99542 1.94248e-17
6331.99982 1.94498e-17
6334.00422 1.94726e-17
6335.99860 1.95156e-17
6338.00300 1.95611e-17
6339.99738 1.95940e-17
6342.00178 1.96340e-17
6343.99615 1.96652e-17
6346.00055 1.97015e-17
6347.99493 1.97201e-17
6349.99933 1.97463e-17
6352.00373 1.97689e-17
6353.99811 1.98145e-17
6356.00251 1.98514e-17
6357.99689 1.98616e-17
6360.00129 1.98499e-17
6361.99567 1.98513e-17
6364.00007 1.98528e-17
6366.00447 1.98570e-17
6367.99884 1.98522e-17
6370.00324 1.98571e-17
6371.99762 1.98908e-17
6374.00202 1.99140e-17
6375.99640 1.99255e-17
6378.00080 1.99440e-17
6379.99518 1.99682e-17
6381.99958 1.99835e-17
6384.00398 2.00084e-17
6385.99836 2.00346e-17
6388.00276 2.00612e-17
6389.99713 2.00759e-17
6392.00153 2.00678e-17
6393.99591 2.00610e-17
6396.00031 2.00243e-17
6398.00471 2.00133e-17
6399.99909 2.00202e-17
6402.00349 2.00203e-17
6403.99787 2.00072e-17
6406.00227 1.99942e-17
6407.99665 1.99948e-17
6410.00105 1.99829e-17
6411.99542 1.99859e-17
6413.99982 2.00172e-17
6416.00422 2.00272e-17
6417.99860 2.00220e-17
6420.00300 2.00313e-17
6421.99738 2.00855e-17
6424.00178 2.01347e-17
6425.99616 2.01533e-17
6428.00056 2.01653e-17
6429.99494 2.01738e-17
6431.99934 2.01842e-17
6434.00374 2.01948e-17
6435.99811 2.02080e-17
6438.00251 2.02252e-17
6439.99689 2.02303e-17
6442.00129 2.02245e-17
6443.99567 2.02271e-17
6446.00007 2.02333e-17
6448.00447 2.02201e-17
6449.99885 2.02294e-17
6452.00325 2.02321e-17
6453.99763 2.02198e-17
6456.00203 2.02301e-17
6457.99640 2.02425e-17
6460.00080 2.02195e-17
6461.99518 2.01852e-17
6463.99958 2.01653e-17
6466.00398 2.01631e-17
6467.99836 2.01579e-17
6470.00276 2.01564e-17
6471.99714 2.01400e-17
6474.00154 2.01143e-17
6475.99592 2.00906e-17
6478.00032 2.00800e-17
6480.00472 2.00763e-17
6481.99909 2.00865e-17
6484.00349 2.01158e-17
6485.99787 2.01336e-17
6488.00227 2.01568e-17
6489.99665 2.01824e-17
6492.00105 2.01804e-17
6493.99543 2.01774e-17
6495.99983 2.01647e-17
6498.00423 2.01607e-17
6499.99861 2.01638e-17
6502.00301 2.01660e-17
6503.99738 2.01686e-17
6506.00178 2.01961e-17
6507.99616 2.02125e-17
6510.00056 2.02124e-17
6512.00496 2.02003e-17
6513.99934 2.01809e-17
6516.00374 2.01645e-17
6517.99812 2.01542e-17
6520.00252 2.01351e-17
6521.99690 2.01137e-17
6524.00130 2.01406e-17
6525.99567 2.01710e-17
6528.00007 2.01433e-17
6530.00447 2.00777e-17
6531.99885 2.00204e-17
6534.00325 2.00112e-17
6535.99763 2.00126e-17
6538.00203 2.00070e-17
6539.99641 1.99807e-17
6542.00081 1.99594e-17
6543.99519 1.99448e-17
6545.99959 1.99364e-17
6548.00399 1.99286e-17
6549.99836 1.99226e-17
6552.00276 1.99054e-17
6553.99714 1.98649e-17
6556.00154 1.98467e-17
6557.99592 1.98383e-17
6560.00032 1.98165e-17
6562.00472 1.97975e-17
6563.99910 1.97808e-17
6566.00350 1.97460e-17
6567.99788 1.97183e-17
6570.00228 1.97113e-17
6571.99665 1.96708e-17
6574.00105 1.96144e-17
6575.99543 1.95821e-17
6577.99983 1.95709e-17
6580.00423 1.95476e-17
6581.99861 1.95056e-17
6584.00301 1.94492e-17
6585.99739 1.94015e-17
6588.00179 1.93614e-17
6589.99617 1.93125e-17
6592.00057 1.92869e-17
6593.99494 1.92730e-17
6595.99934 1.92427e-17
6598.00374 1.91991e-17
6599.99812 1.91611e-17
6602.00252 1.91056e-17
6603.99690 1.90561e-17
6606.00130 1.90308e-17
6607.99568 1.89892e-17
6610.00008 1.89570e-17
6612.00448 1.89173e-17
6613.99886 1.88432e-17
6616.00326 1.88078e-17
6617.99763 1.87920e-17
6620.00203 1.87641e-17
6621.99641 1.87219e-17
6624.00081 1.86800e-17
6625.99519 1.86382e-17
6627.99959 1.85867e-17
6630.00399 1.85322e-17
6631.99837 1.84942e-17
6634.00277 1.84659e-17
6635.99715 1.84364e-17
6638.00155 1.84009e-17
6639.99592 1.83661e-17
6642.00032 1.83338e-17
6644.00472 1.82989e-17
6645.99910 1.82852e-17
6648.00350 1.82653e-17
6649.99788 1.82371e-17
6652.00228 1.82076e-17
6653.99666 1.81729e-17
6656.00106 1.81469e-17
6657.99544 1.81116e-17
6659.99984 1.80809e-17
6662.00424 1.80509e-17
6663.99861 1.80269e-17
6666.00301 1.79934e-17
6667.99739 1.79808e-17
6670.00179 1.79713e-17
6671.99617 1.79405e-17
6674.00057 1.78885e-17
6676.00497 1.78555e-17
6677.99935 1.78232e-17
6680.00375 1.77918e-17
6681.99813 1.77764e-17
6684.00253 1.77661e-17
6685.99690 1.77464e-17
6688.00130 1.76981e-17
6689.99568 1.76696e-17
6692.00008 1.76669e-17
6694.00448 1.76296e-17
6695.99886 1.75789e-17
6698.00326 1.75522e-17
6699.99764 1.75317e-17
6702.00204 1.75014e-17
6703.99642 1.74945e-17
6706.00082 1.74812e-17
6707.99519 1.74325e-17
6709.99959 1.73765e-17
6712.00399 1.73554e-17
6713.99837 1.73452e-17
6716.00277 1.73125e-17
6717.99715 1.72870e-17
6720.00155 1.72777e-17
6721.99593 1.72536e-17
6724.00033 1.72430e-17
6726.00473 1.72273e-17
6727.99911 1.71976e-17
6730.00351 1.71889e-17
6731.99788 1.71840e-17
6734.00228 1.71383e-17
6735.99666 1.71180e-17
6738.00106 1.70943e-17
6739.99544 1.70753e-17
6741.99984 1.70514e-17
6744.00424 1.70072e-17
6745.99862 1.69605e-17
6748.00302 1.69184e-17
6749.99740 1.68799e-17
6752.00180 1.68444e-17
6753.99617 1.68028e-17
6756.00057 1.67678e-17
6758.00497 1.67319e-17
6759.99935 1.66880e-17
6762.00375 1.66477e-17
6763.99813 1.66029e-17
6766.00253 1.65494e-17
6767.99691 1.64976e-17
6770.00131 1.64482e-17
6771.99569 1.64006e-17
6774.00009 1.63515e-17
6776.00449 1.63044e-17
6777.99886 1.62564e-17
6780.00326 1.62078e-17
6781.99764 1.61690e-17
6784.00204 1.61206e-17
6785.99642 1.60691e-17
6788.00082 1.60296e-17
6789.99520 1.59944e-17
6791.99960 1.59471e-17
6794.00400 1.59139e-17
6795.99838 1.58870e-17
6798.00278 1.58607e-17
6799.99715 1.58379e-17
6802.00155 1.58201e-17
6803.99593 1.57966e-17
6806.00033 1.57796e-17
6808.00473 1.57824e-17
6809.99911 1.57819e-17
6812.00351 1.57703e-17
6813.99789 1.57592e-17
6816.00229 1.57470e-17
6817.99667 1.57364e-17
6820.00107 1.57359e-17
6821.99544 1.57392e-17
6823.99984 1.57088e-17
6826.00424 1.56816e-17
6827.99862 1.56516e-17
6830.00302 1.56260e-17
6831.99740 1.56119e-17
6834.00180 1.56061e-17
6835.99618 1.55828e-17
6838.00058 1.55651e-17
6839.99496 1.55613e-17
6841.99936 1.55538e-17
6844.00376 1.55335e-17
6845.99813 1.55385e-17
6848.00253 1.55435e-17
6849.99691 1.55485e-17
6852.00131 1.55534e-17
6853.99569 1.55584e-17
6856.00009 1.55634e-17
6858.00449 1.55684e-17
6859.99887 1.55733e-17
6862.00327 1.55783e-17
6863.99765 1.55833e-17
6866.00205 1.55882e-17
6867.99642 1.55932e-17
6870.00082 1.55982e-17
6871.99520 1.56031e-17
6873.99960 1.56081e-17
6876.00400 1.56131e-17
6877.99838 1.56180e-17
6880.00278 1.56230e-17
6881.99716 1.56280e-17
6884.00156 1.56329e-17
6885.99594 1.56379e-17
6888.00034 1.56429e-17
6890.00474 1.56478e-17
6891.99911 1.56528e-17
6894.00351 1.56577e-17
6895.99789 1.56627e-17
6898.00229 1.56677e-17
6899.99667 1.56726e-17
6902.00107 1.56776e-17
6903.99545 1.56825e-17
6905.99985 1.56875e-17
6908.00425 1.56924e-17
6909.99863 1.56974e-17
6912.00303 1.57024e-17
6913.99740 1.57073e-17
6916.00180 1.57123e-17
6917.99618 1.57172e-17
6920.00058 1.57222e-17
6922.00498 1.57271e-17
6923.99936 1.57321e-17
6926.00376 1.57370e-17
6927.99814 1.57419e-17
6930.00254 1.57469e-17
6931.99692 1.57518e-17
6934.00132 1.57568e-17
6935.99569 1.57617e-17
6938.00009 1.57809e-17
6940.00449 1.58008e-17
6941.99887 1.58163e-17
6944.00327 1.58280e-17
6945.99765 1.58371e-17
6948.00205 1.58617e-17
6949.99643 1.58788e-17
6952.00083 1.58867e-17
6953.99521 1.58923e-17
6955.99961 1.58878e-17
6958.00401 1.58493e-17
6959.99838 1.58322e-17
6962.00278 1.58225e-17
6963.99716 1.58123e-17
6966.00156 1.58122e-17
6967.99594 1.58224e-17
6970.00034 1.58265e-17
6972.00474 1.58194e-17
6973.99912 1.57865e-17
6976.00352 1.57699e-17
6977.99790 1.57997e-17
6980.00230 1.58065e-17
6981.99667 1.57844e-17
6984.00107 1.57642e-17
6985.99545 1.57626e-17
6987.99985 1.57424e-17
6990.00425 1.57177e-17
6991.99863 1.56899e-17
6994.00303 1.56789e-17
6995.99741 1.56765e-17
6998.00181 1.56688e-17
6999.99619 1.56691e-17
7002.00059 1.56480e-17
7003.99496 1.56470e-17
7005.99936 1.56466e-17
7008.00376 1.56188e-17
7009.99814 1.56098e-17
7012.00254 1.56160e-17
7013.99692 1.56268e-17
7016.00132 1.56324e-17
7017.99570 1.56381e-17
7020.00010 1.56529e-17
7022.00450 1.56460e-17
7023.99888 1.56266e-17
7026.00328 1.56317e-17
7027.99765 1.56417e-17
7030.00205 1.56069e-17
7031.99643 1.55793e-17
7034.00083 1.55625e-17
7035.99521 1.55540e-17
7037.99961 1.55483e-17
7040.00401 1.55146e-17
7041.99839 1.54862e-17
7044.00279 1.54779e-17
7045.99717 1.54534e-17
7048.00157 1.54221e-17
7049.99594 1.54130e-17
7052.00034 1.53957e-17
7054.00474 1.53570e-17
7055.99912 1.53295e-17
7058.00352 1.53076e-17
7059.99790 1.52840e-17
7062.00230 1.52550e-17
7063.99668 1.52309e-17
7066.00108 1.51878e-17
7067.99546 1.51555e-17
7069.99986 1.51324e-17
7072.00426 1.51270e-17
7073.99863 1.51004e-17
7076.00303 1.50736e-17
7077.99741 1.50537e-17
7080.00181 1.50402e-17
7081.99619 1.50227e-17
7084.00059 1.49922e-17
7085.99497 1.49885e-17
7087.99937 1.49592e-17
7090.00377 1.49438e-17
7091.99815 1.49370e-17
7094.00255 1.49314e-17
7095.99692 1.49181e-17
7098.00132 1.49095e-17
7099.99570 1.49067e-17
7102.00010 1.49047e-17
7104.00450 1.49051e-17
7105.99888 1.48895e-17
7108.00328 1.48855e-17
7109.99766 1.49256e-17
7112.00206 1.49238e-17
7113.99644 1.49092e-17
7116.00084 1.49143e-17
7117.99521 1.49169e-17
7119.99961 1.49280e-17
7122.00401 1.49316e-17
7123.99839 1.49354e-17
7126.00279 1.49398e-17
7127.99717 1.49383e-17
7130.00157 1.49421e-17
7131.99595 1.49240e-17
7134.00035 1.49005e-17
7136.00475 1.48968e-17
7137.99913 1.49098e-17
7140.00353 1.49234e-17
7141.99790 1.49340e-17
7144.00230 1.49549e-17
7145.99668 1.49694e-17
7148.00108 1.49947e-17
7149.99546 1.50031e-17
7151.99986 1.49976e-17
7154.00426 1.49945e-17
7155.99864 1.50000e-17
7158.00304 1.50037e-17
7159.99742 1.50230e-17
7162.00182 1.50376e-17
7163.99619 1.50558e-17
7166.00059 1.50871e-17
7168.00499 1.51068e-17
7169.99937 1.51115e-17
7172.00377 1.51188e-17
7173.99815 1.51418e-17
7176.00255 1.51573e-17
7177.99693 1.51469e-17
7180.00133 1.51518e-17
7181.99571 1.51713e-17
7184.00011 1.51962e-17
7186.00451 1.52209e-17
7187.99888 1.52287e-17
7190.00328 1.52499e-17
7191.99766 1.52465e-17
7194.00206 1.52317e-17
7195.99644 1.52269e-17
7198.00084 1.52270e-17
7199.99522 1.52087e-17
7201.99962 1.51674e-17
7204.00402 1.51098e-17
7205.99840 1.50230e-17
7208.00280 1.49353e-17
7209.99717 1.48473e-17
7212.00157 1.47705e-17
7213.99595 1.46999e-17
7216.00035 1.46418e-17
7218.00475 1.45827e-17
7219.99913 1.45360e-17
7222.00353 1.45185e-17
7223.99791 1.44948e-17
7226.00231 1.44802e-17
7227.99669 1.44708e-17
7230.00109 1.44718e-17
7231.99546 1.44901e-17
7233.99986 1.44751e-17
7236.00426 1.44582e-17
7237.99864 1.44612e-17
7240.00304 1.44376e-17
7241.99742 1.44147e-17
7244.00182 1.43813e-17
7245.99620 1.43282e-17
7248.00060 1.42924e-17
7249.99498 1.42768e-17
7251.99938 1.42390e-17
7254.00378 1.41888e-17
7255.99815 1.41354e-17
7258.00255 1.40987e-17
7259.99693 1.40531e-17
7262.00133 1.39906e-17
7263.99571 1.39544e-17
7266.00011 1.39169e-17
7268.00451 1.38626e-17
7269.99889 1.37892e-17
7272.00329 1.37504e-17
7273.99767 1.37298e-17
7276.00207 1.37097e-17
7277.99644 1.36991e-17
7280.00084 1.36642e-17
7281.99522 1.36080e-17
7283.99962 1.35615e-17
7286.00402 1.35564e-17
7287.99840 1.35544e-17
7290.00280 1.35590e-17
7291.99718 1.35339e-17
7294.00158 1.35035e-17
7295.99596 1.34349e-17
7298.00036 1.33811e-17
7300.00476 1.33498e-17
7301.99913 1.33037e-17
7304.00353 1.32433e-17
7305.99791 1.32006e-17
7308.00231 1.31707e-17
7309.99669 1.31074e-17
7312.00109 1.30512e-17
7313.99547 1.30027e-17
7315.99987 1.29373e-17
7318.00427 1.28539e-17
7319.99865 1.27838e-17
7322.00305 1.27011e-17
7323.99742 1.26201e-17
7326.00182 1.25500e-17
7327.99620 1.24797e-17
7330.00060 1.24320e-17
7331.99498 1.23965e-17
7333.99938 1.23311e-17
7336.00378 1.22565e-17
7337.99816 1.22129e-17
7340.00256 1.21797e-17
7341.99694 1.21144e-17
7344.00134 1.20409e-17
7345.99571 1.19827e-17
7348.00011 1.19200e-17
7350.00451 1.18623e-17
7351.99889 1.17970e-17
7354.00329 1.17366e-17
7355.99767 1.16721e-17
7358.00207 1.16078e-17
7359.99645 1.15563e-17
7362.00085 1.14745e-17
7363.99523 1.13944e-17
7365.99963 1.13359e-17
7368.00403 1.12684e-17
7369.99840 1.12041e-17
7372.00280 1.11535e-17
7373.99718 1.10954e-17
7376.00158 1.10309e-17
7377.99596 1.09640e-17
7380.00036 1.09032e-17
7382.00476 1.08367e-17
7383.99914 1.07748e-17
7386.00354 1.07105e-17
7387.99792 1.06394e-17
7390.00232 1.05594e-17
7391.99669 1.04946e-17
7394.00109 1.04204e-17
7395.99547 1.03404e-17
7397.99987 1.02642e-17
7400.00427 1.01926e-17
7401.99865 1.01197e-17
7404.00305 1.00280e-17
7405.99743 9.94851e-18
7408.00183 9.85963e-18
7409.99621 9.74936e-18
7412.00061 9.64893e-18
7414.00501 9.57937e-18
7415.99938 9.50876e-18
7418.00378 9.41858e-18
7419.99816 9.34349e-18
7422.00256 9.26855e-18
7423.99694 9.21035e-18
7426.00134 9.13713e-18
7427.99572 9.07379e-18
7430.00012 9.01691e-18
7432.00452 8.94812e-18
7433.99890 8.90348e-18
7436.00330 8.84802e-18
7437.99767 8.78251e-18
7440.00207 8.72162e-18
7441.99645 8.66388e-18
7444.00085 8.60855e-18
7445.99523 8.54052e-18
7447.99963 8.47084e-18
7450.00403 8.40907e-18
7451.99841 8.34252e-18
7454.00281 8.26776e-18
7455.99719 8.21657e-18
7458.00159 8.16140e-18
7459.99596 8.10037e-18
7462.00036 8.04606e-18
7464.00476 7.99170e-18
7465.99914 7.95630e-18
7468.00354 7.91761e-18
7469.99792 7.87462e-18
7472.00232 7.83189e-18
7473.99670 7.78396e-18
7476.00110 7.73098e-18
7477.99548 7.69321e-18
7479.99988 7.65060e-18
7482.00428 7.61419e-18
7483.99865 7.55074e-18
7486.00305 7.47895e-18
7487.99743 7.41002e-18
7490.00183 7.34489e-18
7491.99621 7.28232e-18
7494.00061 7.20987e-18
7495.99499 7.13312e-18
7497.99939 7.06253e-18
7500.00379 6.99339e-18
7501.99817 6.85222e-18
7504.00257 6.76437e-18
7505.99694 6.67508e-18
7508.00134 6.61488e-18
7509.99572 6.57566e-18
7512.00012 6.53056e-18
7514.00452 6.46878e-18
7515.99890 6.43597e-18
7518.00330 6.38933e-18
7519.99768 6.35040e-18
7522.00208 6.33308e-18
7523.99646 6.28361e-18
7526.00086 6.25512e-18
7527.99523 6.21305e-18
7529.99963 6.17658e-18
7532.00403 6.15913e-18
7533.99841 6.13909e-18
7536.00281 6.12195e-18
7537.99719 6.10815e-18
7540.00159 6.10378e-18
7541.99597 6.08495e-18
7544.00037 6.06706e-18
7546.00477 6.07278e-18
7547.99915 6.08204e-18
7550.00355 6.11495e-18
7551.99792 6.12714e-18
7554.00232 6.13934e-18
7555.99670 6.15153e-18
7558.00110 6.16372e-18
7559.99548 6.17590e-18
7561.99988 6.18809e-18
7564.00428 6.20028e-18
7565.99866 6.21246e-18
7568.00306 6.22464e-18
7569.99744 6.23682e-18
7572.00184 6.24900e-18
7573.99621 6.26117e-18
7576.00061 6.27335e-18
7577.99499 6.28552e-18
7579.99939 6.29769e-18
7582.00379 6.30986e-18
7583.99817 6.32203e-18
7586.00257 6.33420e-18
7587.99695 6.34637e-18
7590.00135 6.35853e-18
7591.99573 6.37069e-18
7594.00013 6.38285e-18
7596.00453 6.39501e-18
7597.99890 6.40717e-18
7600.00330 6.41932e-18
7601.99768 6.43148e-18
7604.00208 6.44363e-18
7605.99646 6.45578e-18
7608.00086 6.46793e-18
7609.99524 6.48008e-18
7611.99964 6.49223e-18
7614.00404 6.50437e-18
7615.99842 6.51651e-18
7618.00282 6.52865e-18
7619.99719 6.54079e-18
7622.00159 6.55293e-18
7623.99597 6.56507e-18
7626.00037 6.57720e-18
7628.00477 6.58934e-18
7629.99915 6.60147e-18
7632.00355 6.61360e-18
7633.99793 6.62573e-18
7636.00233 6.63785e-18
7637.99671 6.64998e-18
7640.00111 6.66210e-18
7641.99548 6.67423e-18
7643.99988 6.68635e-18
7646.00428 6.69847e-18
7647.99866 6.71058e-18
7650.00306 6.72270e-18
7651.99744 6.73481e-18
7654.00184 6.74693e-18
7655.99622 6.75904e-18
7658.00062 6.77115e-18
7660.00502 6.78325e-18
7661.99940 6.79536e-18
7664.00380 6.80746e-18
7665.99817 6.81957e-18
7668.00257 6.83167e-18
7669.99695 6.84377e-18
7672.00135 6.85587e-18
7673.99573 6.86796e-18
7676.00013 6.88006e-18
7678.00453 6.89215e-18
7679.99891 6.90424e-18
7682.00331 6.91381e-18
7683.99769 6.94672e-18
7686.00209 6.97988e-18
7687.99646 7.00459e-18
7690.00086 7.03232e-18
7691.99524 7.06154e-18
7693.99964 7.11262e-18
7696.00404 7.17769e-18
7697.99842 7.20029e-18
7700.00282 7.20158e-18
7701.99720 7.21385e-18
7704.00160 7.23371e-18
7705.99598 7.26063e-18
7708.00038 7.28441e-18
7710.00478 7.30481e-18
7711.99915 7.32923e-18
7714.00355 7.35121e-18
7715.99793 7.36709e-18
7718.00233 7.38961e-18
7719.99671 7.37913e-18
7722.00111 7.38254e-18
7723.99549 7.42243e-18
7725.99989 7.45914e-18
7728.00429 7.49743e-18
7729.99867 7.52535e-18
7732.00307 7.54736e-18
7733.99744 7.55865e-18
7736.00184 7.58536e-18
7737.99622 7.63212e-18
7740.00062 7.68516e-18
7741.99500 7.71787e-18
7743.99940 7.74139e-18
7746.00380 7.78267e-18
7747.99818 7.82890e-18
7750.00258 7.86714e-18
7751.99696 7.89318e-18
7754.00136 7.89924e-18
7755.99573 7.91094e-18
7758.00013 7.92735e-18
7760.00453 7.96161e-18
7761.99891 7.99631e-18
7764.00331 8.01975e-18
7765.99769 8.06069e-18
7768.00209 8.12338e-18
7769.99647 8.17119e-18
7772.00087 8.21676e-18
7773.99525 8.23637e-18
7775.99965 8.24641e-18
7778.00405 8.25526e-18
7779.99842 8.26154e-18
7782.00282 8.29293e-18
7783.99720 8.31019e-18
7786.00160 8.31978e-18
7787.99598 8.33922e-18
7790.00038 8.37055e-18
7792.00478 8.42663e-18
7793.99916 8.45542e-18
7796.00356 8.44044e-18
7797.99794 8.41758e-18
7800.00234 8.55128e-18
7801.99671 8.61862e-18
7804.00111 8.68635e-18
7805.99549 8.72497e-18
7807.99989 8.74511e-18
7810.00429 8.78956e-18
7811.99867 8.81059e-18
7814.00307 8.81074e-18
7815.99745 8.82315e-18
7818.00185 8.85199e-18
7819.99623 8.85328e-18
7822.00063 8.84367e-18
7823.99500 8.83545e-18
7825.99940 8.82318e-18
7828.00380 8.84281e-18
7829.99818 8.84889e-18
7832.00258 8.83751e-18
7833.99696 8.84269e-18
7836.00136 8.84412e-18
7837.99574 8.84110e-18
7840.00014 8.83328e-18
7842.00454 8.83896e-18
7843.99892 8.84538e-18
7846.00332 8.84339e-18
7847.99769 8.83924e-18
7850.00209 8.85416e-18
7851.99647 8.83640e-18
7854.00087 8.81475e-18
7855.99525 8.81005e-18
7857.99965 8.80693e-18
7860.00405 8.80920e-18
7861.99843 8.80326e-18
7864.00283 8.81892e-18
7865.99721 8.85652e-18
7868.00161 8.84460e-18
7869.99598 8.80438e-18
7872.00038 8.80532e-18
7874.00478 8.81267e-18
7875.99916 8.80896e-18
7878.00356 8.76431e-18
7879.99794 8.74401e-18
7882.00234 8.75877e-18
7883.99672 8.76148e-18
7886.00112 8.75482e-18
7887.99550 8.77432e-18
7889.99990 8.80097e-18
7892.00430 8.80551e-18
7893.99867 8.78931e-18
7896.00307 8.77415e-18
7897.99745 8.77662e-18
7900.00185 8.80203e-18
7901.99623 8.81876e-18
7904.00063 8.80859e-18
7906.00503 8.81312e-18
7907.99941 8.82960e-18
7910.00381 8.84059e-18
7911.99819 8.82529e-18
7914.00259 8.84157e-18
7915.99696 8.87175e-18
7918.00136 8.84545e-18
7919.99574 8.82931e-18
7922.00014 8.81307e-18
7924.00454 8.77879e-18
7925.99892 8.76020e-18
7928.00332 8.77297e-18
7929.99770 8.76995e-18
7932.00210 8.74564e-18
7933.99648 8.73721e-18
7936.00088 8.72104e-18
7937.99525 8.67835e-18
7939.99965 8.62723e-18
7942.00405 8.61847e-18
7943.99843 8.60511e-18
7946.00283 8.56540e-18
7947.99721 8.53791e-18
7950.00161 8.51870e-18
7951.99599 8.49698e-18
7954.00039 8.49428e-18
7956.00479 8.48415e-18
7957.99917 8.47958e-18
7960.00357 8.48329e-18
7961.99794 8.46045e-18
7964.00234 8.43052e-18
7965.99672 8.44994e-18
7968.00112 8.43129e-18
7969.99550 8.39255e-18
7971.99990 8.36652e-18
7974.00430 8.33473e-18
7975.99868 8.31462e-18
7978.00308 8.28501e-18
7979.99746 8.26120e-18
7982.00186 8.22643e-18
7983.99623 8.20071e-18
7986.00063 8.15152e-18
7987.99501 8.11011e-18
7989.99941 8.10508e-18
7992.00381 8.07918e-18
7993.99819 8.03429e-18
7996.00259 8.01519e-18
7997.99697 8.02119e-18
8000.00137 8.00815e-18
8001.99575 8.00564e-18
8004.00015 7.99860e-18
8006.00455 7.98821e-18
8007.99892 7.97109e-18
8010.00332 7.98186e-18
8011.99770 7.99140e-18
8014.00210 7.98235e-18
8015.99648 7.94576e-18
8018.00088 7.90961e-18
8019.99526 7.92717e-18
8021.99966 7.94664e-18
8024.00406 7.91247e-18
8025.99844 7.87167e-18
8028.00284 7.85152e-18
8029.99721 7.84769e-18
8032.00161 7.83718e-18
8033.99599 7.80666e-18
8036.00039 7.78185e-18
8037.99477 7.76771e-18
8039.99917 7.74251e-18
8042.00357 7.71859e-18
8043.99795 7.69910e-18
8046.00235 7.66939e-18
8047.99673 7.65187e-18
8050.00113 7.62747e-18
8051.99550 7.57979e-18
8053.99990 7.54224e-18
8056.00430 7.53578e-18
8057.99868 7.49386e-18
8060.00308 7.49654e-18
8061.99746 7.49505e-18
8064.00186 7.45143e-18
8065.99624 7.43147e-18
8068.00064 7.41030e-18
8070.00504 7.38019e-18
8071.99942 7.36191e-18
8074.00382 7.34153e-18
8075.99819 7.31039e-18
8078.00259 7.29056e-18
8079.99697 7.27322e-18
8082.00137 7.27292e-18
8083.99575 7.25506e-18
8086.00015 7.22001e-18
8088.00455 7.19979e-18
8089.99893 7.17575e-18
8092.00333 7.16932e-18
8093.99771 7.13778e-18
8096.00211 7.11831e-18
8097.99648 7.10149e-18
8100.00088 7.05803e-18
8101.99526 7.01110e-18
8103.99966 7.00690e-18
8106.00406 7.01333e-18
8107.99844 7.00604e-18
8110.00284 6.97383e-18
8111.99722 6.95433e-18
8114.00162 6.95645e-18
8115.99600 6.96083e-18
8118.00040 6.96673e-18
8120.00480 6.98704e-18
8121.99917 6.96186e-18
8124.00357 6.98123e-18
8125.99795 6.98257e-18
8128.00235 7.00067e-18
8129.99673 7.02734e-18
8132.00113 7.04950e-18
8133.99551 7.05789e-18
8135.99991 7.08333e-18
8138.00431 7.09348e-18
8139.99869 7.12102e-18
8142.00309 7.12079e-18
8143.99746 7.11398e-18
8146.00186 7.13030e-18
8147.99624 7.14265e-18
8150.00064 7.16479e-18
8151.99502 7.18306e-18
8153.99942 7.13287e-18
8156.00382 7.14135e-18
8157.99820 7.16873e-18
8160.00260 7.18352e-18
8161.99698 7.19929e-18
8164.00138 7.21216e-18
8165.99575 7.18470e-18
8168.00015 7.16753e-18
8170.00455 7.17860e-18
8171.99893 7.17473e-18
8174.00333 7.15056e-18
8175.99771 7.15419e-18
8178.00211 7.17974e-18
8179.99649 7.19731e-18
8182.00089 7.17755e-18
8183.99527 7.13939e-18
8185.99967 7.12379e-18
8188.00407 7.10424e-18
8189.99844 7.04276e-18
8192.00284 7.02433e-18
8193.99722 7.02298e-18
8196.00162 7.02847e-18
8197.99600 6.97914e-18
8200.00040 6.95984e-18
8202.00480 6.91625e-18
8203.99918 6.86943e-18
8206.00358 6.84872e-18
8207.99796 6.82108e-18
8210.00236 6.81084e-18
8211.99673 6.82759e-18
8214.00113 6.81276e-18
8215.99551 6.81904e-18
8217.99991 6.82680e-18
8220.00431 6.85400e-18
8221.99869 6.89737e-18
8224.00309 6.93121e-18
8225.99747 6.97531e-18
8228.00187 7.00763e-18
8229.99625 7.01288e-18
8232.00065 6.97117e-18
8233.99502 6.91213e-18
8235.99942 6.89277e-18
8238.00382 6.88913e-18
8239.99820 6.87836e-18
8242.00260 6.88015e-18
8243.99698 6.89434e-18
8246.00138 6.91600e-18
8247.99576 6.94659e-18
8250.00016 6.99344e-18
8252.00456 7.04205e-18
8253.99894 7.06579e-18
8256.00334 7.07787e-18
8257.99771 7.10074e-18
8260.00211 7.14761e-18
8261.99649 7.17384e-18
8264.00089 7.21060e-18
8265.99527 7.26039e-18
8267.99967 7.31809e-18
8270.00407 7.38885e-18
8271.99845 7.47424e-18
8274.00285 7.55845e-18
8275.99723 7.63353e-18
8278.00163 7.68319e-18
8279.99600 7.72288e-18
8282.00040 7.77301e-18
8284.00480 7.80830e-18
8285.99918 7.86111e-18
8288.00358 7.91814e-18
8289.99796 7.99512e-18
8292.00236 8.06585e-18
8293.99674 8.12657e-18
8296.00114 8.19592e-18
8297.99552 8.27686e-18
8299.99992 8.35048e-18
8302.00432 8.41810e-18
8303.99869 8.49853e-18
8306.00309 8.56403e-18
8307.99747 8.63621e-18
8310.00187 8.69687e-18
8311.99625 8.78384e-18
8314.00065 8.88099e-18
8316.00505 8.95347e-18
8317.99943 9.03535e-18
8320.00383 9.10455e-18
8321.99821 9.15484e-18
8324.00261 9.22115e-18
8325.99698 9.31137e-18
8328.00138 9.38497e-18
8329.99576 9.48082e-18
8332.00016 9.57735e-18
8334.00456 9.63704e-18
8335.99894 9.71747e-18
8338.00334 9.75889e-18
8339.99772 9.81948e-18
8342.00212 9.89834e-18
8343.99650 9.93866e-18
8346.00090 1.00123e-17
8347.99527 1.00621e-17
8349.99967 1.00605e-17
8352.00407 1.00779e-17
8353.99845 1.01185e-17
8356.00285 1.01831e-17
8357.99723 1.02325e-17
8360.00163 1.02965e-17
8361.99601 1.03718e-17
8364.00041 1.04155e-17
8365.99479 1.04572e-17
8367.99919 1.05072e-17
8370.00359 1.05690e-17
8371.99796 1.06037e-17
8374.00236 1.06112e-17
8375.99674 1.06309e-17
8378.00114 1.06708e-17
8379.99552 1.07209e-17
8381.99992 1.08127e-17
8384.00432 1.08761e-17
8385.99870 1.09421e-17
8388.00310 1.09672e-17
8389.99748 1.09952e-17
8392.00188 1.10264e-17
8393.99625 1.10727e-17
8396.00065 1.11022e-17
8397.99503 1.11332e-17
8399.99943 1.11868e-17
8402.00383 1.12269e-17
8403.99821 1.12755e-17
8406.00261 1.13497e-17
8407.99699 1.14174e-17
8410.00139 1.14244e-17
8411.99577 1.14605e-17
8414.00017 1.15324e-17
8416.00457 1.16013e-17
8417.99894 1.16568e-17
8420.00334 1.17316e-17
8421.99772 1.18056e-17
8424.00212 1.18699e-17
8425.99650 1.19721e-17
8428.00090 1.20634e-17
8430.00530 1.21479e-17
8431.99968 1.21854e-17
8434.00408 1.22312e-17
8435.99846 1.22806e-17
8438.00286 1.23631e-17
8439.99723 1.24251e-17
8442.00163 1.24907e-17
8443.99601 1.25684e-17
8446.00041 1.26008e-17
8448.00481 1.26883e-17
8449.99919 1.27199e-17
8452.00359 1.27086e-17
8453.99797 1.27082e-17
8456.00237 1.27115e-17
8457.99675 1.26951e-17
8460.00115 1.27784e-17
8461.99552 1.28450e-17
8463.99992 1.29115e-17
8466.00432 1.30027e-17
8467.99870 1.30354e-17
8470.00310 1.30328e-17
8471.99748 1.30557e-17
8474.00188 1.31134e-17
8475.99626 1.31332e-17
8478.00066 1.31820e-17
8479.99504 1.32026e-17
8481.99944 1.31739e-17
8484.00384 1.31839e-17
8485.99821 1.32181e-17
8488.00261 1.32481e-17
8489.99699 1.32643e-17
8492.00139 1.32595e-17
8493.99577 1.32642e-17
8496.00017 1.32871e-17
8498.00457 1.32848e-17
8499.99895 1.32906e-17
8502.00335 1.33081e-17
8503.99773 1.33308e-17
8506.00213 1.33620e-17
8507.99650 1.33437e-17
8510.00090 1.33066e-17
8511.99528 1.32797e-17
8513.99968 1.32217e-17
8516.00408 1.31944e-17
8517.99846 1.32671e-17
8520.00286 1.33083e-17
8521.99724 1.33538e-17
8524.00164 1.33531e-17
8525.99602 1.33369e-17
8528.00042 1.33274e-17
8530.00482 1.33199e-17
8531.99919 1.33700e-17
8534.00359 1.34403e-17
8535.99797 1.35150e-17
8538.00237 1.35361e-17
8539.99675 1.35055e-17
8542.00115 1.34772e-17
8543.99553 1.34760e-17
8545.99993 1.34683e-17
8548.00433 1.34660e-17
8549.99871 1.34752e-17
8552.00311 1.34960e-17
8553.99748 1.34746e-17
8556.00188 1.34247e-17
8557.99626 1.33895e-17
8560.00066 1.33842e-17
8562.00506 1.33656e-17
8563.99944 1.33876e-17
8566.00384 1.34110e-17
8567.99822 1.34061e-17
8570.00262 1.34154e-17
8571.99700 1.34283e-17
8574.00140 1.34462e-17
8575.99577 1.34651e-17
8578.00017 1.34610e-17
8580.00457 1.34500e-17
8581.99895 1.33986e-17
8584.00335 1.33551e-17
8585.99773 1.33283e-17
8588.00213 1.32764e-17
8589.99651 1.32579e-17
8592.00091 1.32692e-17
8593.99529 1.32807e-17
8595.99969 1.32776e-17
8598.00409 1.32477e-17
8599.99846 1.32081e-17
8602.00286 1.32073e-17
8603.99724 1.31872e-17
8606.00164 1.31434e-17
8607.99602 1.31209e-17
8610.00042 1.30811e-17
8611.99480 1.30137e-17
8613.99920 1.29746e-17
8616.00360 1.29243e-17
8617.99798 1.28373e-17
8620.00238 1.27976e-17
8621.99675 1.27820e-17
8624.00115 1.27702e-17
8625.99553 1.27379e-17
8627.99993 1.27050e-17
8630.00433 1.26923e-17
8631.99871 1.27177e-17
8634.00311 1.26927e-17
8635.99749 1.26360e-17
8638.00189 1.25590e-17
8639.99627 1.25032e-17
8642.00067 1.24473e-17
8643.99504 1.23989e-17
8645.99944 1.23595e-17
8648.00384 1.23462e-17
8649.99822 1.22968e-17
8652.00262 1.22905e-17
8653.99700 1.22465e-17
8656.00140 1.22130e-17
8657.99578 1.22042e-17
8660.00018 1.21727e-17
8662.00458 1.21508e-17
8663.99896 1.20915e-17
8666.00336 1.20543e-17
8667.99773 1.20085e-17
8670.00213 1.19262e-17
8671.99651 1.19068e-17
8674.00091 1.18933e-17
8676.00531 1.18735e-17
8677.99969 1.18298e-17
8680.00409 1.17755e-17
8681.99847 1.17584e-17
8684.00287 1.17167e-17
8685.99725 1.16689e-17
8688.00165 1.16474e-17
8689.99602 1.16350e-17
8692.00042 1.15970e-17
8694.00482 1.16260e-17
8695.99920 1.16470e-17
8698.00360 1.15959e-17
8699.99798 1.15769e-17
8702.00238 1.15451e-17
8703.99676 1.14974e-17
8706.00116 1.14503e-17
8707.99554 1.14052e-17
8709.99994 1.13744e-17
8712.00434 1.13469e-17
8713.99871 1.12984e-17
8716.00311 1.12590e-17
8717.99749 1.12496e-17
8720.00189 1.12236e-17
8721.99627 1.12158e-17
8724.00067 1.12355e-17
8725.99505 1.12405e-17
8727.99945 1.12141e-17
8730.00385 1.11822e-17
8731.99823 1.11417e-17
8734.00263 1.11387e-17
8735.99700 1.11354e-17
8738.00140 1.11207e-17
8739.99578 1.10828e-17
8742.00018 1.10391e-17
8744.00458 1.10065e-17
8745.99896 1.09386e-17
8748.00336 1.08560e-17
8749.99774 1.07823e-17
8752.00214 1.06942e-17
8753.99652 1.06336e-17
8756.00092 1.05972e-17
8757.99529 1.05820e-17
8759.99969 1.05601e-17
8762.00409 1.05728e-17
8763.99847 1.05033e-17
8766.00287 1.04434e-17
8767.99725 1.04336e-17
8770.00165 1.03887e-17
8771.99603 1.02976e-17
8774.00043 1.02686e-17
8776.00483 1.02032e-17
8777.99921 1.00682e-17
8780.00361 1.00169e-17
8781.99798 9.97308e-18
8784.00238 9.90360e-18
8785.99676 9.83899e-18
8788.00116 9.74113e-18
8789.99554 9.65459e-18
8791.99994 9.57176e-18
8794.00434 9.48919e-18
8795.99872 9.38901e-18
8798.00312 9.32223e-18
8799.99750 9.37314e-18
8802.00190 9.36362e-18
8803.99627 9.29373e-18
8806.00067 9.22639e-18
8808.00507 9.15579e-18
8809.99945 9.09881e-18
8812.00385 9.02486e-18
8813.99823 8.98030e-18
8816.00263 8.96268e-18
8817.99701 8.93871e-18
8820.00141 8.91855e-18
8821.99579 8.86982e-18
8824.00019 8.79080e-18
8825.99456 8.73036e-18
8827.99896 8.72617e-18
8830.00336 8.72660e-18
8831.99774 8.70482e-18
8834.00214 8.69732e-18
8835.99652 8.68747e-18
8838.00092 8.66790e-18
8839.99530 8.64181e-18
8841.99970 8.65777e-18
8844.00410 8.66859e-18
8845.99848 8.61900e-18
8848.00288 8.62852e-18
8849.99725 8.65371e-18
8852.00165 8.66136e-18
8853.99603 8.65748e-18
8856.00043 8.62650e-18
8857.99481 8.65414e-18
8859.99921 8.68836e-18
8862.00361 8.66041e-18
8863.99799 8.63178e-18
8866.00239 8.60043e-18
8867.99677 8.59891e-18
8870.00117 8.59935e-18
8871.99554 8.59635e-18
8873.99994 8.58503e-18
8876.00434 8.59629e-18
8877.99872 8.59919e-18
8880.00312 8.60944e-18
8881.99750 8.60932e-18
8884.00190 8.63201e-18
8885.99628 8.63323e-18
8888.00068 8.63296e-18
8890.00508 8.58708e-18
8891.99946 8.57011e-18
8894.00386 8.59635e-18
8895.99823 8.65246e-18
8898.00263 8.66665e-18
8899.99701 8.66072e-18
8902.00141 8.68787e-18
8903.99579 8.65395e-18
8906.00019 8.64409e-18
8908.00459 8.65156e-18
8909.99897 8.63220e-18
8912.00337 8.62258e-18
8913.99775 8.67181e-18
8916.00215 8.64329e-18
8917.99652 8.60661e-18
8920.00092 8.61696e-18
8922.00532 8.62405e-18
8923.99970 8.59937e-18
8926.00410 8.58180e-18
8927.99848 8.56975e-18
8930.00288 8.56432e-18
8931.99726 8.53749e-18
8934.00166 8.49757e-18
8935.99604 8.47353e-18
8938.00044 8.43669e-18
8940.00484 8.40805e-18
8941.99921 8.40283e-18
8944.00361 8.36911e-18
8945.99799 8.36490e-18
8948.00239 8.35128e-18
8949.99677 8.29623e-18
8952.00117 8.24972e-18
8953.99555 8.24729e-18
8955.99995 8.25748e-18
8958.00435 8.24061e-18
8959.99873 8.21401e-18
8962.00313 8.17443e-18
8963.99750 8.18389e-18
8966.00190 8.19130e-18
8967.99628 8.18806e-18
8970.00068 8.13971e-18
8971.99506 8.12746e-18
8973.99946 8.11042e-18
8976.00386 8.05824e-18
8977.99824 8.04092e-18
8980.00264 8.06410e-18
8981.99702 8.11202e-18
8984.00142 8.12168e-18
8985.99579 8.12075e-18
8988.00019 8.16306e-18
8990.00459 8.15115e-18
8991.99897 8.10475e-18
8994.00337 8.06793e-18
8995.99775 8.07261e-18
8998.00215 8.12205e-18
8999.99653 8.20072e-18
9002.00093 8.23774e-18
9003.99531 8.27184e-18
9005.99971 8.30014e-18
9008.00411 8.34161e-18
9009.99848 8.36228e-18
9012.00288 8.35168e-18
9013.99726 8.34534e-18
9016.00166 8.34571e-18
9017.99604 8.32381e-18
9020.00044 8.32480e-18
9022.00484 8.30314e-18
9023.99922 8.30165e-18
9026.00362 8.28886e-18
9027.99800 8.30254e-18
9030.00240 8.30886e-18
9031.99677 8.31043e-18
9034.00117 8.31100e-18
9035.99555 8.35572e-18
9037.99995 8.38008e-18
9040.00435 8.40708e-18
9041.99873 8.47530e-18
9044.00313 8.51427e-18
9045.99751 8.53561e-18
9048.00191 8.53637e-18
9049.99629 8.53162e-18
9052.00069 8.57805e-18
9053.99506 8.60169e-18
9055.99946 8.63174e-18
9058.00386 8.67338e-18
9059.99824 8.72956e-18
9062.00264 8.78354e-18
9063.99702 8.81670e-18
9066.00142 8.85837e-18
9067.99580 8.91651e-18
9070.00020 8.95636e-18
9071.99458 8.97923e-18
9073.99898 9.00467e-18
9076.00338 9.02461e-18
9077.99775 9.08413e-18
9080.00215 9.13899e-18
9081.99653 9.12453e-18
9084.00093 9.13107e-18
9085.99531 9.13532e-18
9087.99971 9.18349e-18
9090.00411 9.19902e-18
9091.99849 9.22360e-18
9094.00289 9.24404e-18
9095.99727 9.21244e-18
9098.00167 9.25436e-18
9099.99604 9.28796e-18
9102.00044 9.30591e-18
9103.99482 9.31032e-18
9105.99922 9.30102e-18
9108.00362 9.26531e-18
9109.99800 9.27107e-18
9112.00240 9.28701e-18
9113.99678 9.31782e-18
9116.00118 9.33051e-18
9117.99556 9.33708e-18
9119.99996 9.31242e-18
9122.00436 9.29456e-18
9123.99873 9.31456e-18
9126.00313 9.37970e-18
9127.99751 9.41074e-18
9130.00191 9.44876e-18
9131.99629 9.44519e-18
9134.00069 9.41800e-18
9136.00509 9.40726e-18
9137.99947 9.35819e-18
9140.00387 9.29445e-18
9141.99825 9.23649e-18
9144.00265 9.22007e-18
9145.99702 9.26975e-18
9148.00142 9.29319e-18
9149.99580 9.32767e-18
9152.00020 9.31971e-18
9154.00460 9.28399e-18
9155.99898 9.25562e-18
9158.00338 9.20815e-18
9159.99776 9.16575e-18
9162.00216 9.15507e-18
9163.99654 9.14965e-18
9166.00094 9.13783e-18
9168.00534 9.18291e-18
9169.99971 9.26372e-18
9172.00411 9.28118e-18
9173.99849 9.26931e-18
9176.00289 9.28514e-18
9177.99727 9.27599e-18
9180.00167 9.25343e-18
9181.99605 9.23000e-18
9184.00045 9.21842e-18
9185.99483 9.23306e-18
9187.99923 9.20734e-18
9190.00363 9.25121e-18
9191.99800 9.28863e-18
9194.00240 9.28431e-18
9195.99678 9.27388e-18
9198.00118 9.30518e-18
9199.99556 9.33767e-18
9201.99996 9.32557e-18
9204.00436 9.29737e-18
9205.99874 9.32590e-18
9208.00314 9.36656e-18
9209.99752 9.40372e-18
9212.00192 9.40599e-18
9213.99629 9.41823e-18
9216.00069 9.40618e-18
9217.99507 9.42295e-18
9219.99947 9.43897e-18
9222.00387 9.45307e-18
9223.99825 9.40694e-18
9226.00265 9.41541e-18
9227.99703 9.39820e-18
9230.00143 9.29538e-18
9231.99581 9.23046e-18
9234.00021 9.23144e-18
9236.00461 9.18595e-18
9237.99898 9.14050e-18
9240.00338 9.10971e-18
9241.99776 9.04347e-18
9244.00216 8.99770e-18
9245.99654 8.98218e-18
9248.00094 8.93265e-18
9249.99532 8.90388e-18
9251.99972 8.89824e-18
9254.00412 8.83822e-18
9255.99850 8.77182e-18
9258.00290 8.73737e-18
9259.99727 8.67822e-18
9262.00167 8.67045e-18
9263.99605 8.61813e-18
9266.00045 8.58818e-18
9268.00485 8.59010e-18
9269.99923 8.54327e-18
9272.00363 8.55148e-18
9273.99801 8.56565e-18
9276.00241 8.53914e-18
9277.99679 8.56018e-18
9280.00119 8.58608e-18
9281.99556 8.52791e-18
9283.99996 8.47342e-18
9286.00436 8.47810e-18
9287.99874 8.48474e-18
9290.00314 8.47627e-18
9291.99752 8.47466e-18
9294.00192 8.44826e-18
9295.99630 8.46343e-18
9298.00070 8.44137e-18
9299.99508 8.37007e-18
9301.99948 8.42319e-18
9304.00388 8.44794e-18
9305.99825 8.38670e-18
9308.00265 8.39825e-18
9309.99703 8.37115e-18
9312.00143 8.32818e-18
9313.99581 8.33763e-18
9316.00021 8.33431e-18
9317.99459 8.26194e-18
9319.99899 8.28946e-18
9322.00339 8.30220e-18
9323.99777 8.29898e-18
9326.00217 8.32773e-18
9327.99654 8.34719e-18
9330.00094 8.40782e-18
9331.99532 8.49817e-18
9333.99972 8.54778e-18
9336.00412 8.61964e-18
9337.99850 8.67343e-18
9340.00290 8.61942e-18
9341.99728 8.43998e-18
9344.00168 8.30480e-18
9345.99606 8.22703e-18
9348.00046 8.13741e-18
9349.99483 8.16321e-18
9351.99923 8.25916e-18
9354.00363 8.25499e-18
9355.99801 8.14828e-18
9358.00241 8.06029e-18
9359.99679 8.01060e-18
9362.00119 8.03626e-18
9363.99557 8.12081e-18
9365.99997 8.14099e-18
9368.00437 8.10535e-18
9369.99875 8.06200e-18
9372.00315 7.96451e-18
9373.99752 8.00068e-18
9376.00192 8.02914e-18
9377.99630 7.93605e-18
9380.00070 7.84429e-18
9382.00510 7.78682e-18
9383.99948 7.71597e-18
9386.00388 7.66917e-18
9387.99826 7.61480e-18
9390.00266 7.58029e-18
9391.99704 7.58257e-18
9394.00144 7.60913e-18
9395.99581 7.65987e-18
9398.00021 7.64763e-18
9400.00461 7.66843e-18
9401.99899 7.69922e-18
9404.00339 7.71168e-18
9405.99777 7.69131e-18
9408.00217 7.70744e-18
9409.99655 7.74075e-18
9412.00095 7.74783e-18
9413.99533 7.77000e-18
9415.99973 7.71685e-18
9418.00413 7.62806e-18
9419.99850 7.60327e-18
9422.00290 7.66427e-18
9423.99728 7.73044e-18
9426.00168 7.74205e-18
9427.99606 7.66112e-18
9430.00046 7.61303e-18
9431.99484 7.53615e-18
9433.99924 7.52464e-18
9436.00364 7.51047e-18
9437.99802 7.58430e-18
9440.00242 7.66483e-18
9441.99679 7.61541e-18
9444.00119 7.47739e-18
9445.99557 7.51392e-18
9447.99997 7.54892e-18
9450.00437 7.51255e-18
9451.99875 7.60086e-18
9454.00315 7.70073e-18
9455.99753 7.68185e-18
9458.00193 7.61780e-18
9459.99631 7.58380e-18
9462.00071 7.60535e-18
9463.99508 7.60169e-18
9465.99948 7.58714e-18
9468.00388 7.61106e-18
9469.99826 7.64082e-18
9472.00266 7.64468e-18
9473.99704 7.66227e-18
9476.00144 7.70952e-18
9477.99582 7.72511e-18
9480.00022 7.58146e-18
9482.00462 7.53655e-18
9483.99900 7.51669e-18
9486.00340 7.47853e-18
9487.99777 7.47849e-18
9490.00217 7.53591e-18
9491.99655 7.61153e-18
9494.00095 7.66215e-18
9495.99533 7.64295e-18
9497.99973 7.57923e-18
9500.00413 7.51261e-18
9501.99851 7.43587e-18
9504.00291 7.35430e-18
9505.99729 7.31687e-18
9508.00169 7.33133e-18
9509.99606 7.34042e-18
9512.00046 7.36186e-18
9514.00486 7.39180e-18
9515.99924 7.39077e-18
9518.00364 7.41249e-18
9519.99802 7.36262e-18
9522.00242 7.26145e-18
9523.99680 7.24945e-18
9526.00120 7.25906e-18
9527.99558 7.25234e-18
9529.99998 7.30403e-18
9532.00438 7.36024e-18
9533.99875 7.38034e-18
9536.00315 7.40743e-18
9537.99753 7.42620e-18
9540.00193 7.44455e-18
9541.99631 7.42552e-18
9544.00071 7.39604e-18
9545.99509 7.36875e-18
9547.99949 7.33619e-18
9550.00389 7.35453e-18
9551.99827 7.36124e-18
9554.00267 7.36653e-18
9555.99704 7.25145e-18
9558.00144 7.14161e-18
9559.99582 7.06619e-18
9562.00022 6.98123e-18
9563.99460 6.93563e-18
9565.99900 6.89569e-18
9568.00340 6.82205e-18
9569.99778 6.72253e-18
9572.00218 6.70605e-18
9573.99656 6.75555e-18
9576.00096 6.80912e-18
9577.99533 6.89839e-18
9579.99973 6.90317e-18
9582.00413 6.86703e-18
9583.99851 6.84922e-18
9586.00291 6.83255e-18
9587.99729 6.85156e-18
9590.00169 6.90285e-18
9591.99607 6.89742e-18
9594.00047 6.85171e-18
9596.00487 6.79959e-18
9597.99925 6.82819e-18
9600.00365 6.80768e-18
9601.99802 6.83035e-18
9604.00242 6.85055e-18
9605.99680 6.84531e-18
9608.00120 6.81617e-18
9609.99558 6.83262e-18
9611.99998 6.81667e-18
9614.00438 6.83226e-18
9615.99876 6.85763e-18
9618.00316 6.83228e-18
9619.99754 6.79836e-18
9622.00194 6.82922e-18
9623.99631 6.86246e-18
9626.00071 6.81891e-18
9628.00511 6.86087e-18
9629.99949 6.95794e-18
9632.00389 6.94868e-18
9633.99827 7.00159e-18
9636.00267 7.03927e-18
9637.99705 7.07478e-18
9640.00145 7.09994e-18
9641.99583 7.09451e-18
9644.00023 7.05722e-18
9646.00463 6.94151e-18
9647.99900 6.95923e-18
9650.00340 6.96969e-18
9651.99778 6.90994e-18
9654.00218 6.93538e-18
9655.99656 7.01687e-18
9658.00096 7.04492e-18
9659.99534 7.04419e-18
9661.99974 7.00364e-18
9664.00414 6.94669e-18
9665.99852 6.86415e-18
9668.00292 6.80887e-18
9669.99729 6.71567e-18
9672.00169 6.66561e-18
9673.99607 6.65125e-18
9676.00047 6.57385e-18
9677.99485 6.53512e-18
9679.99925 6.56232e-18
9682.00365 6.47365e-18
9683.99803 6.37698e-18
9686.00243 6.35969e-18
9687.99681 6.35035e-18
9690.00121 6.30359e-18
9691.99558 6.40159e-18
9693.99998 6.51337e-18
9696.00438 6.39880e-18
9697.99876 6.34977e-18
9700.00316 6.40667e-18
9701.99754 6.45420e-18
9704.00194 6.47088e-18
9705.99632 6.48263e-18
9708.00072 6.48869e-18
9709.99510 6.52593e-18
9711.99950 6.60187e-18
9714.00390 6.60073e-18
9715.99827 6.64644e-18
9718.00267 6.63114e-18
9719.99705 6.51893e-18
9722.00145 6.51642e-18
9723.99583 6.47829e-18
9726.00023 6.43288e-18
9728.00463 6.47129e-18
9729.99901 6.53404e-18
9732.00341 6.57061e-18
9733.99779 6.60499e-18
9736.00219 6.69373e-18
9737.99656 6.60376e-18
9740.00096 6.54689e-18
9741.99534 6.53098e-18
9743.99974 6.50347e-18
9746.00414 6.45712e-18
9747.99852 6.49680e-18
9750.00292 6.50997e-18
9751.99730 6.51158e-18
9754.00170 6.53492e-18
9755.99608 6.47045e-18
9758.00048 6.52272e-18
9760.00488 6.58994e-18
9761.99925 6.54355e-18
9764.00365 6.50673e-18
9765.99803 6.48685e-18
9768.00243 6.54370e-18
9769.99681 6.52951e-18
9772.00121 6.55516e-18
9773.99559 6.57187e-18
9775.99999 6.62805e-18
9778.00439 6.62872e-18
9779.99877 6.60662e-18
9782.00317 6.64131e-18
9783.99754 6.58618e-18
9786.00194 6.56503e-18
9787.99632 6.51346e-18
9790.00072 6.46510e-18
9791.99510 6.49009e-18
9793.99950 6.53022e-18
9796.00390 6.41998e-18
9797.99828 6.45287e-18
9800.00268 6.55720e-18
9801.99706 6.61213e-18
9804.00146 6.48246e-18
9805.99583 6.43294e-18
9808.00023 6.44179e-18
9809.99461 6.39610e-18
9811.99901 6.26461e-18
9814.00341 6.21373e-18
9815.99779 6.22495e-18
9818.00219 6.24904e-18
9819.99657 6.23378e-18
9822.00097 6.20877e-18
9823.99535 6.25613e-18
9825.99975 6.28495e-18
9828.00415 6.28576e-18
9829.99852 6.28975e-18
9832.00292 6.30036e-18
9833.99730 6.29143e-18
9836.00170 6.28454e-18
9837.99608 6.28597e-18
9840.00048 6.25019e-18
9842.00488 6.25375e-18
9843.99926 6.28601e-18
9846.00366 6.31837e-18
9847.99804 6.30727e-18
9850.00244 6.30459e-18
9851.99681 6.32914e-18
9854.00121 6.31596e-18
9855.99559 6.27698e-18
9857.99999 6.26711e-18
9860.00439 6.27734e-18
9861.99877 6.25471e-18
9864.00317 6.26276e-18
9865.99755 6.15515e-18
9868.00195 6.06304e-18
9869.99633 6.06391e-18
9872.00073 6.08388e-18
9874.00513 6.18088e-18
9875.99950 6.20122e-18
9878.00390 6.17922e-18
9879.99828 6.21813e-18
9882.00268 6.24896e-18
9883.99706 6.26419e-18
9886.00146 6.23822e-18
9887.99584 6.23597e-18
9890.00024 6.33295e-18
9892.00464 6.39599e-18
9893.99902 6.44638e-18
9896.00342 6.50455e-18
9897.99779 6.48543e-18
9900.00219 6.40413e-18
9901.99657 6.29718e-18
9904.00097 6.28075e-18
9905.99535 6.27024e-18
9907.99975 6.30620e-18
9910.00415 6.37207e-18
9911.99853 6.30803e-18
9914.00293 6.28797e-18
9915.99731 6.33560e-18
9918.00171 6.35588e-18
9919.99608 6.33143e-18
9922.00048 6.30216e-18
9923.99486 6.34946e-18
9925.99926 6.40945e-18
9928.00366 6.46770e-18
9929.99804 6.43824e-18
9932.00244 6.50163e-18
9933.99682 6.50646e-18
9936.00122 6.55360e-18
9937.99560 6.65344e-18
9940.00000 6.70718e-18
9942.00440 6.75903e-18
9943.99877 6.73142e-18
9946.00317 6.76976e-18
9947.99755 6.81146e-18
9950.00195 6.70405e-18
9951.99633 6.67078e-18
9954.00073 6.60908e-18
9955.99511 6.60427e-18
9957.99951 6.57940e-18
9960.00391 6.43779e-18
9961.99829 6.32248e-18
9964.00269 6.30589e-18
9965.99706 6.23609e-18
9968.00146 6.07090e-18
9969.99584 6.02420e-18
9972.00024 5.92638e-18
9974.00464 5.86284e-18
9975.99902 5.83927e-18
9978.00342 5.93676e-18
9979.99780 5.96350e-18
9982.00220 5.97877e-18
9983.99658 5.97073e-18
9986.00098 5.95792e-18
9987.99535 6.01920e-18
9989.99975 6.06571e-18
9992.00415 6.05545e-18
9993.99853 5.99423e-18
9996.00293 5.97170e-18
9997.99731 5.92233e-18
10000.00171 5.92496e-18
