# wavelength flux
4035.65896 7.24564e-18
4039.26688 7.36340e-18
4042.86478 7.80262e-18
4046.47270 7.39901e-18
4050.08062 5.96783e-18
4053.68854 7.69573e-18
4057.28644 7.69329e-18
4060.89436 7.20769e-18
4064.50228 6.35218e-18
4068.11020 5.79191e-18
4071.71812 6.35979e-18
4075.31601 6.55293e-18
4078.92393 5.63434e-18
4082.53185 6.82818e-18
4086.13977 6.35782e-18
4089.74769 7.08458e-18
4093.34559 7.33043e-18
4096.95351 6.12705e-18
4100.56143 5.57994e-18
4104.16935 6.46392e-18
4107.77727 7.16877e-18
4111.37517 7.64540e-18
4114.98309 8.04019e-18
4118.59101 7.91336e-18
4122.19893 6.37917e-18
4125.80685 6.43617e-18
4129.40475 6.59829e-18
4133.01267 7.65073e-18
4136.62059 7.81767e-18
4140.22851 7.97203e-18
4143.82641 7.34832e-18
4147.43433 6.78454e-18
4151.04225 7.09259e-18
4154.65017 6.53359e-18
4158.25809 7.21022e-18
4161.85598 7.27003e-18
4165.46390 8.35149e-18
4169.07182 7.73680e-18
4172.67974 7.08314e-18
4176.28766 6.77557e-18
4179.88556 6.95574e-18
4183.49348 7.30300e-18
4187.10140 6.82446e-18
4190.70932 7.69503e-18
4194.31724 8.17900e-18
4197.91514 7.92576e-18
4201.52306 7.73729e-18
4205.13098 7.65755e-18
4208.73890 8.60756e-18
4212.34682 8.26293e-18
4215.94472 7.94830e-18
4219.55264 8.49467e-18
4223.16056 8.53141e-18
4226.76848 8.06488e-18
4230.37640 8.28342e-18
4233.97430 8.01030e-18
4237.58222 8.18726e-18
4241.19014 8.37559e-18
4244.79806 8.91540e-18
4248.40598 7.83375e-18
4252.00387 7.06940e-18
4255.61179 7.96218e-18
4259.21971 8.72508e-18
4262.82763 9.41113e-18
4266.42553 8.30376e-18
4270.03345 8.45770e-18
4273.64137 8.22105e-18
4277.24929 8.76853e-18
4280.85721 9.62130e-18
4284.45511 9.12290e-18
4288.06303 9.58100e-18
4291.67095 1.08632e-17
4295.27887 1.03234e-17
4298.88679 9.65254e-18
4302.48469 1.00643e-17
4306.09261 1.03543e-17
4309.70053 9.60967e-18
4313.30845 8.44739e-18
4316.91637 8.65089e-18
4320.51427 9.39956e-18
4324.12219 9.63589e-18
4327.73011 1.05184e-17
4331.33803 1.01930e-17
4334.94595 1.02831e-17
4338.54384 9.46111e-18
4342.15176 9.06786e-18
4345.75968 9.81821e-18
4349.36760 7.87132e-18
4352.97552 6.30466e-18
4356.57342 6.80824e-18
4360.18134 7.96299e-18
4363.78926 9.83517e-18
4367.39718 9.95568e-18
4371.00510 9.68059e-18
4374.60300 9.75808e-18
4378.21092 9.74188e-18
4381.81884 1.02481e-17
4385.42676 1.02786e-17
4389.03468 1.04771e-17
4392.63258 1.07076e-17
4396.24050 1.03139e-17
4399.84842 1.05861e-17
4403.45634 1.07055e-17
4407.05424 1.05698e-17
4410.66216 1.06667e-17
4414.27008 1.14458e-17
4417.87800 1.13802e-17
4421.48592 1.06870e-17
4425.08381 9.63930e-18
4428.69173 1.01019e-17
4432.29965 1.10585e-17
4435.90757 1.02613e-17
4439.51549 1.06058e-17
4443.11339 1.13833e-17
4446.72131 1.10515e-17
4450.32923 1.09707e-17
4453.93715 1.14972e-17
4457.54507 1.18466e-17
4461.14297 1.15751e-17
4464.75089 1.14103e-17
4468.35881 1.21041e-17
4471.96673 1.27526e-17
4475.57465 1.23886e-17
4479.17255 1.20458e-17
4482.78047 1.23738e-17
4486.38839 1.21633e-17
4489.99631 1.30113e-17
4493.60423 1.41617e-17
4497.20213 1.37425e-17
4500.81005 1.30061e-17
4504.41797 1.26446e-17
4508.02589 1.29698e-17
4511.63381 1.27970e-17
4515.23170 1.27260e-17
4518.83962 1.32891e-17
4522.44754 1.33213e-17
4526.05546 1.38299e-17
4529.65336 1.38159e-17
4533.26128 1.40423e-17
4536.86920 1.36562e-17
4540.47712 1.32970e-17
4544.08504 1.38495e-17
4547.68294 1.36365e-17
4551.29086 1.42745e-17
4554.89878 1.50135e-17
4558.50670 1.48018e-17
4562.11462 1.43846e-17
4565.71252 1.47617e-17
4569.32044 1.49823e-17
4572.92836 1.46717e-17
4576.53628 1.42435e-17
4580.14420 1.49723e-17
4583.74210 1.48763e-17
4587.35002 1.41935e-17
4590.95794 1.36360e-17
4594.56586 1.33826e-17
4598.17378 1.44843e-17
4601.77167 1.46616e-17
4605.37959 1.42593e-17
4608.98751 1.41723e-17
4612.59543 1.41234e-17
4616.20335 1.44184e-17
4619.80125 1.41970e-17
4623.40917 1.37981e-17
4627.01709 1.46067e-17
4630.62501 1.44150e-17
4634.22291 1.40837e-17
4637.83083 1.37080e-17
4641.43875 1.38755e-17
4645.04667 1.41617e-17
4648.65459 1.45955e-17
4652.25249 1.45079e-17
4655.86041 1.37883e-17
4659.46833 1.28242e-17
4663.07625 1.22616e-17
4666.68417 1.29884e-17
4670.28207 1.41692e-17
4673.88999 1.35400e-17
4677.49791 1.27188e-17
4681.10583 1.20936e-17
4684.71375 1.24779e-17
4688.31164 1.27082e-17
4691.91956 1.21652e-17
4695.52748 1.18249e-17
4699.13540 1.26112e-17
4702.74332 1.21619e-17
4706.34122 1.13282e-17
4709.94914 1.20131e-17
4713.55706 1.25111e-17
4717.16498 1.24055e-17
4720.77290 1.20993e-17
4724.37080 1.24685e-17
4727.97872 1.15802e-17
4731.58664 1.10890e-17
4735.19456 1.11180e-17
4738.80248 1.09924e-17
4742.40038 1.11733e-17
4746.00830 1.14575e-17
4749.61622 1.09124e-17
4753.22414 1.12805e-17
4756.82204 1.15625e-17
4760.42996 1.15068e-17
4764.03788 1.12391e-17
4767.64580 1.10081e-17
4771.25372 1.06998e-17
4774.85161 1.13123e-17
4778.45953 1.13120e-17
4782.06745 1.00776e-17
4785.67537 1.11370e-17
4789.28329 1.15145e-17
4792.88119 1.16124e-17
4796.48911 1.14707e-17
4800.09703 1.11084e-17
4803.70495 1.16830e-17
4807.31287 1.16842e-17
4810.91077 1.11046e-17
4814.51869 1.12824e-17
4818.12661 1.19705e-17
4821.73453 1.19067e-17
4825.34245 1.21704e-17
4828.94035 1.17662e-17
4832.54827 1.17349e-17
4836.15619 1.17419e-17
4839.76411 1.17208e-17
4843.37203 1.19352e-17
4846.96993 1.23949e-17
4850.57785 1.22736e-17
4854.18577 1.18858e-17
4857.79369 1.21355e-17
4861.40161 1.21541e-17
4864.99950 1.21028e-17
4868.60742 1.17594e-17
4872.21534 1.19586e-17
4875.82326 1.20439e-17
4879.42116 1.26244e-17
4883.02908 1.26545e-17
4886.63700 1.29345e-17
4890.24492 1.31554e-17
4893.85284 1.30307e-17
4897.45074 1.28268e-17
4901.05866 1.28398e-17
4904.66658 1.29907e-17
4908.27450 1.28150e-17
4911.88242 1.27914e-17
4915.48032 1.27570e-17
4919.08824 1.30876e-17
4922.69616 1.35453e-17
4926.30408 1.29129e-17
4929.91200 1.33475e-17
4933.50990 1.29328e-17
4937.11782 1.33819e-17
4940.72574 1.37833e-17
4944.33366 1.34904e-17
4947.94158 1.31794e-17
4951.53947 1.27653e-17
4955.14739 1.24966e-17
4958.75531 1.24053e-17
4962.36323 1.27258e-17
4965.96113 1.26231e-17
4969.56905 1.27222e-17
4973.17697 1.21941e-17
4976.78489 1.20191e-17
4980.39281 1.17125e-17
4983.99071 1.27724e-17
4987.59863 1.33187e-17
4991.20655 1.37010e-17
4994.81447 1.36956e-17
4998.42239 1.32527e-17
5002.02029 1.27257e-17
5005.62821 1.27788e-17
5009.23613 1.36351e-17
5012.84405 1.38160e-17
5016.45197 1.34023e-17
5020.04987 1.40991e-17
5023.65779 1.41414e-17
5027.26571 1.42507e-17
5030.87363 1.33643e-17
5034.48155 1.30722e-17
5038.07944 1.26052e-17
5041.68736 1.32130e-17
5045.29528 1.38558e-17
5048.90320 1.38533e-17
5052.51112 1.40818e-17
5056.10902 1.41820e-17
5059.71694 1.37730e-17
5063.32486 1.33056e-17
5066.93278 1.33869e-17
5070.54070 1.41803e-17
5074.13860 1.46038e-17
5077.74652 1.42573e-17
5081.35444 1.34700e-17
5084.96236 1.38422e-17
5088.57028 1.39496e-17
5092.16818 1.38886e-17
5095.77610 1.52857e-17
5099.38402 1.51525e-17
5102.99194 1.45940e-17
5106.58984 1.44695e-17
5110.19776 1.48687e-17
5113.80568 1.52374e-17
5117.41360 1.50808e-17
5121.02152 1.52429e-17
5124.61941 1.52568e-17
5128.22733 1.50795e-17
5131.83525 1.52539e-17
5135.44317 1.54560e-17
5139.05109 1.55891e-17
5142.64899 1.55234e-17
5146.25691 1.52069e-17
5149.86483 1.55774e-17
5153.47275 1.62163e-17
5157.08067 1.58289e-17
5160.67857 1.62109e-17
5164.28649 1.63897e-17
5167.89441 1.58321e-17
5171.50233 1.62967e-17
5175.11025 1.66449e-17
5178.70815 1.64940e-17
5182.31607 1.65755e-17
5185.92399 1.66277e-17
5189.53191 1.65764e-17
5193.13983 1.64667e-17
5196.73773 1.66282e-17
5200.34565 1.68910e-17
5203.95357 1.70596e-17
5207.56149 1.68184e-17
5211.16941 1.73029e-17
5214.76730 1.75109e-17
5218.37522 1.75584e-17
5221.98314 1.75366e-17
5225.59106 1.75695e-17
5229.18896 1.77372e-17
5232.79688 1.77661e-17
5236.40480 1.77289e-17
5240.01272 1.81272e-17
5243.62064 1.80355e-17
5247.21854 1.80876e-17
5250.82646 1.78079e-17
5254.43438 1.78584e-17
5258.04230 1.81002e-17
5261.65022 1.85100e-17
5265.24812 1.83202e-17
5268.85604 1.89226e-17
5272.46396 1.86269e-17
5276.07188 1.83666e-17
5279.67980 1.82414e-17
5283.27770 1.83153e-17
5286.88562 1.87679e-17
5290.49354 1.84099e-17
5294.10146 1.83541e-17
5297.70938 1.86241e-17
5301.30727 1.87323e-17
5304.91519 1.85231e-17
5308.52311 1.81311e-17
5312.13103 1.82365e-17
5315.73895 1.87269e-17
5319.33685 1.89690e-17
5322.94477 1.84120e-17
5326.55269 1.87821e-17
5330.16061 1.94902e-17
5333.76853 1.89584e-17
5337.36643 1.88425e-17
5340.97435 1.83395e-17
5344.58227 1.81929e-17
5348.19019 1.83181e-17
5351.78809 1.82914e-17
5355.39601 1.85063e-17
5359.00393 1.86615e-17
5362.61185 1.86433e-17
5366.21977 1.85987e-17
5369.81767 1.88414e-17
5373.42559 1.91807e-17
5377.03351 1.87439e-17
5380.64143 1.86954e-17
5384.24935 1.89827e-17
5387.84724 1.88174e-17
5391.45516 1.90496e-17
5395.06308 1.90291e-17
5398.67100 1.87692e-17
5402.27892 1.82130e-17
5405.87682 1.81309e-17
5409.48474 1.88883e-17
5413.09266 1.90125e-17
5416.70058 1.92630e-17
5420.30850 1.91139e-17
5423.90640 1.88237e-17
5427.51432 1.87946e-17
5431.12224 1.87748e-17
5434.73016 1.87038e-17
5438.33808 1.88228e-17
5441.93598 1.91245e-17
5445.54390 1.89122e-17
5449.15182 1.86941e-17
5452.75974 1.77730e-17
5456.35764 1.67119e-17
5459.96556 1.70509e-17
5463.57348 1.85160e-17
5467.18140 1.89147e-17
5470.78932 1.87343e-17
5474.38721 1.84744e-17
5477.99513 1.79832e-17
5481.60305 1.76040e-17
5485.21097 1.80590e-17
5488.81889 1.75798e-17
5492.41679 1.70433e-17
5496.02471 1.65903e-17
5499.63263 1.67633e-17
5503.24055 1.72411e-17
5506.84847 1.76116e-17
5510.44637 1.78330e-17
5514.05429 1.79010e-17
5517.66221 1.74526e-17
5521.27013 1.70268e-17
5524.87805 1.70850e-17
5528.47595 1.70854e-17
5532.08387 1.70913e-17
5535.69179 1.74056e-17
5539.29971 1.69099e-17
5542.90763 1.65704e-17
5546.50553 1.67231e-17
5550.11345 1.66378e-17
5553.72137 1.67665e-17
5557.32929 1.72085e-17
5560.93721 1.68617e-17
5564.53510 1.65134e-17
5568.14302 1.64450e-17
5571.75094 1.61568e-17
5575.35886 1.60888e-17
5578.95676 1.62670e-17
5582.56468 1.62101e-17
5586.17260 1.59686e-17
5589.78052 1.58809e-17
5593.38844 1.57687e-17
5596.98634 1.54467e-17
5600.59426 1.53346e-17
5604.20218 1.55205e-17
5607.81010 1.55580e-17
5611.41802 1.51964e-17
5615.01592 1.50000e-17
5618.62384 1.50505e-17
5622.23176 1.55046e-17
5625.83968 1.51173e-17
5629.44760 1.48491e-17
5633.04550 1.52070e-17
5636.65342 1.47249e-17
5640.26134 1.45280e-17
5643.86926 1.46600e-17
5647.47718 1.40464e-17
5651.07507 1.40299e-17
5654.68299 1.42463e-17
5658.29091 1.36714e-17
5661.89883 1.31398e-17
5665.49673 1.30117e-17
5669.10465 1.31847e-17
5672.71257 1.22593e-17
5676.32049 1.21685e-17
5679.92841 1.23811e-17
5683.52631 1.21416e-17
5687.13423 1.22700e-17
5690.74215 1.35644e-17
5694.35007 1.40696e-17
5697.95799 1.39616e-17
5701.55589 1.37265e-17
5705.16381 1.32526e-17
5708.77173 1.31055e-17
5712.37965 1.28662e-17
5715.98757 1.32921e-17
5719.58547 1.36314e-17
5723.19339 1.32962e-17
5726.80131 1.35563e-17
5730.40923 1.33823e-17
5734.01715 1.37096e-17
5737.61504 1.37447e-17
5741.22296 1.42594e-17
5744.83088 1.39282e-17
5748.43880 1.31850e-17
5752.04672 1.31171e-17
5755.64462 1.36143e-17
5759.25254 1.31841e-17
5762.86046 1.27013e-17
5766.46838 1.27802e-17
5770.07630 1.33026e-17
5773.67420 1.30888e-17
5777.28212 1.26791e-17
5780.89004 1.26164e-17
5784.49796 1.35531e-17
5788.10588 1.39602e-17
5791.70378 1.36394e-17
5795.31170 1.39834e-17
5798.91962 1.43496e-17
5802.52754 1.41368e-17
5806.12544 1.41813e-17
5809.73336 1.40532e-17
5813.34128 1.37721e-17
5816.94920 1.38338e-17
5820.55712 1.41507e-17
5824.15501 1.40431e-17
5827.76293 1.41066e-17
5831.37085 1.37474e-17
5834.97877 1.33284e-17
5838.58669 1.38118e-17
5842.18459 1.43061e-17
5845.79251 1.40424e-17
5849.40043 1.42120e-17
5853.00835 1.45585e-17
5856.61627 1.42861e-17
5860.21417 1.42037e-17
5863.82209 1.37171e-17
5867.43001 1.34872e-17
5871.03793 1.35475e-17
5874.64585 1.37083e-17
5878.24375 1.44838e-17
5881.85167 1.39146e-17
5885.45959 1.32732e-17
5889.06751 1.31356e-17
5892.67543 1.29844e-17
5896.27333 1.26465e-17
5899.88125 1.31187e-17
5903.48917 1.33723e-17
5907.09709 1.30221e-17
5910.70501 1.30526e-17
5914.30290 1.31967e-17
5917.91082 1.31779e-17
5921.51874 1.28765e-17
5925.12666 1.23371e-17
5928.72456 1.22221e-17
5932.33248 1.31581e-17
5935.94040 1.36211e-17
5939.54832 1.28808e-17
5943.15624 1.21568e-17
5946.75414 1.27841e-17
5950.36206 1.29331e-17
5953.96998 1.27538e-17
5957.57790 1.22290e-17
5961.18582 1.22536e-17
5964.78372 1.28092e-17
5968.39164 1.34237e-17
5971.99956 1.30263e-17
5975.60748 1.28907e-17
5979.21540 1.30538e-17
5982.81330 1.16101e-17
5986.42122 1.18800e-17
5990.02914 1.23958e-17
5993.63706 1.20268e-17
5997.24498 1.21539e-17
6000.84287 1.23772e-17
6004.45079 1.29917e-17
6008.05871 1.26387e-17
6011.66663 1.20248e-17
6015.27455 1.22067e-17
6018.87245 1.20998e-17
6022.48037 1.21081e-17
6026.08829 1.23591e-17
6029.69621 1.19617e-17
6033.30413 1.18068e-17
6036.90203 1.18595e-17
6040.50995 1.23597e-17
6044.11787 1.24443e-17
6047.72579 1.20248e-17
6051.32369 1.23966e-17
6054.93161 1.26714e-17
6058.53953 1.21479e-17
6062.14745 1.16001e-17
6065.75537 1.21448e-17
6069.35327 1.26713e-17
6072.96119 1.18324e-17
6076.56911 1.18004e-17
6080.17703 1.24513e-17
6083.78495 1.23091e-17
6087.38284 1.15070e-17
6090.99076 1.09888e-17
6094.59868 1.15279e-17
6098.20660 1.20898e-17
6101.81452 1.18950e-17
6105.41242 1.22310e-17
6109.02034 1.19508e-17
6112.62826 1.14444e-17
6116.23618 1.17059e-17
6119.84410 1.21973e-17
6123.44200 1.20218e-17
6127.04992 1.21810e-17
6130.65784 1.25620e-17
6134.26576 1.20388e-17
6137.87368 1.20835e-17
6141.47158 1.22096e-17
6145.07950 1.20131e-17
6148.68742 1.20450e-17
6152.29534 1.16083e-17
6155.89324 1.11598e-17
6159.50116 1.12322e-17
6163.10908 1.14415e-17
6166.71700 1.20671e-17
6170.32492 1.20648e-17
6173.92281 1.15932e-17
6177.53073 1.17510e-17
6181.13865 1.21156e-17
6184.74657 1.22149e-17
6188.35449 1.21737e-17
6191.95239 1.19893e-17
6195.56031 1.20041e-17
6199.16823 1.22011e-17
6202.77615 1.19465e-17
6206.38407 1.17527e-17
6209.98197 1.19879e-17
6213.58989 1.21407e-17
6217.19781 1.23030e-17
6220.80573 1.24545e-17
6224.41365 1.26757e-17
6228.01155 1.27314e-17
6231.61947 1.24061e-17
6235.22739 1.24481e-17
6238.83531 1.24212e-17
6242.44323 1.26542e-17
6246.04113 1.25564e-17
6249.64905 1.26561e-17
6253.25697 1.31421e-17
6256.86489 1.31674e-17
6260.47281 1.26715e-17
6264.07070 1.26167e-17
6267.67862 1.26773e-17
6271.28654 1.24796e-17
6274.89446 1.24097e-17
6278.49236 1.27100e-17
6282.10028 1.25925e-17
6285.70820 1.26985e-17
6289.31612 1.26461e-17
6292.92404 1.22899e-17
6296.52194 1.26577e-17
6300.12986 1.30081e-17
6303.73778 1.25384e-17
6307.34570 1.30470e-17
6310.95362 1.37171e-17
6314.55152 1.36588e-17
6318.15944 1.39434e-17
6321.76736 1.38737e-17
6325.37528 1.37548e-17
6328.98320 1.38960e-17
6332.58110 1.36971e-17
6336.18902 1.34820e-17
6339.79694 1.36272e-17
6343.40486 1.36986e-17
6347.01278 1.33950e-17
6350.61067 1.38733e-17
6354.21859 1.39409e-17
6357.82651 1.36659e-17
6361.43443 1.35364e-17
6365.04235 1.34059e-17
6368.64025 1.34013e-17
6372.24817 1.34121e-17
6375.85609 1.33771e-17
6379.46401 1.33051e-17
6383.06191 1.34652e-17
6386.66983 1.36182e-17
6390.27775 1.33505e-17
6393.88567 1.35723e-17
6397.49359 1.39606e-17
6401.09149 1.35017e-17
6404.69941 1.34852e-17
6408.30733 1.35048e-17
6411.91525 1.32710e-17
6415.52317 1.31287e-17
6419.12107 1.30648e-17
6422.72899 1.29842e-17
6426.33691 1.32801e-17
6429.94483 1.34373e-17
6433.55275 1.31849e-17
6437.15064 1.33346e-17
6440.75856 1.31535e-17
6444.36648 1.28303e-17
6447.97440 1.29538e-17
6451.58232 1.31932e-17
6455.18022 1.31366e-17
6458.78814 1.31591e-17
6462.39606 1.32577e-17
6466.00398 1.32633e-17
6469.61190 1.32420e-17
6473.20980 1.36404e-17
6476.81772 1.34982e-17
6480.42564 1.32084e-17
6484.03356 1.31213e-17
6487.64148 1.31536e-17
6491.23938 1.32235e-17
6494.84730 1.30690e-17
6498.45522 1.30253e-17
6502.06314 1.30547e-17
6505.66104 1.34362e-17
6509.26896 1.37363e-17
6512.87688 1.31748e-17
6516.48480 1.30985e-17
6520.09272 1.30951e-17
6523.69061 1.32507e-17
6527.29853 1.29948e-17
6530.90645 1.29008e-17
6534.51437 1.32877e-17
6538.12229 1.29173e-17
6541.72019 1.29932e-17
6545.32811 1.33109e-17
6548.93603 1.31157e-17
6552.54395 1.32746e-17
6556.15187 1.31989e-17
6559.74977 1.30420e-17
6563.35769 1.27360e-17
6566.96561 1.29271e-17
6570.57353 1.29002e-17
6574.18145 1.28281e-17
6577.77935 1.23115e-17
6581.38727 1.27383e-17
6584.99519 1.33111e-17
6588.60311 1.29775e-17
6592.21103 1.21864e-17
6595.80893 1.22607e-17
6599.41685 1.25929e-17
6603.02477 1.23344e-17
6606.63269 1.20928e-17
6610.24061 1.25249e-17
6613.83850 1.25837e-17
6617.44642 1.27596e-17
6621.05434 1.25169e-17
6624.66226 1.19862e-17
6628.26016 1.19894e-17
6631.86808 1.21545e-17
6635.47600 1.19670e-17
6639.08392 1.23663e-17
6642.69184 1.23722e-17
6646.28974 1.20562e-17
6649.89766 1.18791e-17
6653.50558 1.17465e-17
6657.11350 1.21017e-17
6660.72142 1.20734e-17
6664.31932 1.18393e-17
6667.92724 1.16197e-17
6671.53516 1.15059e-17
6675.14308 1.16792e-17
6678.75100 1.17427e-17
6682.34890 1.15044e-17
6685.95682 1.16997e-17
6689.56474 1.20528e-17
6693.17266 1.19764e-17
6696.78058 1.20112e-17
6700.37847 1.18079e-17
6703.98639 1.15204e-17
6707.59431 1.17292e-17
6711.20223 1.19124e-17
6714.81015 1.15055e-17
6718.40805 1.15795e-17
6722.01597 1.16117e-17
6725.62389 1.14515e-17
6729.23181 1.11395e-17
6732.83973 1.14697e-17
6736.43763 1.12944e-17
6740.04555 1.12601e-17
6743.65347 1.13724e-17
6747.26139 1.11070e-17
6750.85929 1.12073e-17
6754.46721 1.10985e-17
6758.07513 1.12487e-17
6761.68305 1.09706e-17
6765.29097 1.08278e-17
6768.88887 1.11874e-17
6772.49679 1.13017e-17
6776.10471 1.11000e-17
6779.71263 1.06261e-17
6783.32055 1.06347e-17
6786.91844 1.11212e-17
6790.52636 1.06913e-17
6794.13428 1.04540e-17
6797.74220 1.06578e-17
6801.35012 1.04330e-17
6804.94802 1.08836e-17
6808.55594 1.07509e-17
6812.16386 1.06811e-17
6815.77178 1.05428e-17
6819.37970 1.03091e-17
6822.97760 1.02093e-17
6826.58552 1.05861e-17
6830.19344 1.06355e-17
6833.80136 1.03647e-17
6837.40928 1.03923e-17
6841.00718 1.05097e-17
6844.61510 1.03286e-17
6848.22302 1.03226e-17
6851.83094 1.03166e-17
6855.43886 1.03106e-17
6859.03676 1.03046e-17
6862.64468 1.02986e-17
6866.25260 1.02926e-17
6869.86052 1.02866e-17
6873.45841 1.02806e-17
6877.06633 1.02746e-17
6880.67425 1.02686e-17
6884.28217 1.02626e-17
6887.89009 1.02566e-17
6891.48799 1.02506e-17
6895.09591 1.02446e-17
6898.70383 1.02386e-17
6902.31175 1.02326e-17
6905.91967 1.02266e-17
6909.51757 1.02206e-17
6913.12549 1.02146e-17
6916.73341 1.02086e-17
6920.34133 1.02026e-17
6923.94925 1.01966e-17
6927.54715 1.01906e-17
6931.15507 1.01846e-17
6934.76299 1.01786e-17
6938.37091 1.01726e-17
6941.97883 9.77221e-18
6945.57673 9.72116e-18
6949.18465 1.03207e-17
6952.79257 1.03498e-17
6956.40049 1.01890e-17
6960.00841 1.02956e-17
6963.60630 1.02107e-17
6967.21422 1.01289e-17
6970.82214 1.01869e-17
6974.43006 1.02668e-17
6978.02796 9.81600e-18
6981.63588 9.64588e-18
6985.24380 1.00269e-17
6988.85172 1.00446e-17
6992.45964 9.76026e-18
6996.05754 9.91620e-18
6999.66546 9.98184e-18
7003.27338 1.01000e-17
7006.88130 1.00083e-17
7010.48922 1.01524e-17
7014.08712 1.01578e-17
7017.69504 9.84951e-18
7021.30296 9.84553e-18
7024.91088 9.72226e-18
7028.51880 9.84256e-18
7032.11670 9.93020e-18
7035.72462 9.97662e-18
7039.33254 9.96992e-18
7042.94046 9.52152e-18
7046.54838 9.78869e-18
7050.14627 9.80056e-18
7053.75419 9.70283e-18
7057.36211 9.56011e-18
7060.97003 9.58943e-18
7064.57795 9.77397e-18
7068.17585 9.97925e-18
7071.78377 9.56730e-18
7075.39169 9.46055e-18
7078.99961 9.62994e-18
7082.60753 9.73543e-18
7086.20543 9.65094e-18
7089.81335 9.33682e-18
7093.42127 9.13403e-18
7097.02919 9.29103e-18
7100.62709 9.48726e-18
7104.23501 9.21357e-18
7107.84293 9.13724e-18
7111.45085 9.12612e-18
7115.05877 9.44941e-18
7118.65667 9.62807e-18
7122.26459 9.64419e-18
7125.87251 9.67684e-18
7129.48043 9.87062e-18
7133.08835 9.47533e-18
7136.68624 9.52110e-18
7140.29416 9.59947e-18
7143.90208 9.23567e-18
7147.51000 9.20813e-18
7151.11792 9.30122e-18
7154.71582 8.84320e-18
7158.32374 8.71900e-18
7161.93166 8.70539e-18
7165.53958 8.72205e-18
7169.14750 8.40778e-18
7172.74540 7.91979e-18
7176.35332 7.69543e-18
7179.96124 7.63048e-18
7183.56916 7.90877e-18
7187.17708 7.69159e-18
7190.77498 7.60793e-18
7194.38290 7.41365e-18
7197.99082 7.56979e-18
7201.59874 7.76687e-18
7205.19664 7.67177e-18
7208.80456 7.82580e-18
7212.41248 7.82914e-18
7216.02040 7.86789e-18
7219.62832 8.12372e-18
7223.22621 8.18897e-18
7226.83413 8.07150e-18
7230.44205 7.99388e-18
7234.04997 7.67202e-18
7237.65789 7.58362e-18
7241.25579 7.43187e-18
7244.86371 7.49233e-18
7248.47163 7.85355e-18
7252.07955 7.91783e-18
7255.68747 7.89299e-18
7259.28537 7.87703e-18
7262.89329 7.51615e-18
7266.50121 7.13823e-18
7270.10913 7.28794e-18
7273.71705 7.41944e-18
7277.31495 7.12953e-18
7280.92287 6.90864e-18
7284.53079 7.17917e-18
7288.13871 7.42665e-18
7291.74663 7.01481e-18
7295.34453 6.88576e-18
7298.95245 7.22680e-18
7302.56037 7.37732e-18
7306.16829 7.39980e-18
7309.77621 7.00429e-18
7313.37410 6.59135e-18
7316.98202 6.89279e-18
7320.58994 7.11586e-18
7324.19786 6.93942e-18
7327.79576 6.73235e-18
7331.40368 6.60512e-18
7335.01160 6.59787e-18
7338.61952 6.83930e-18
7342.22744 6.91309e-18
7345.82534 6.70472e-18
7349.43326 6.67749e-18
7353.04118 6.29540e-18
7356.64910 6.24543e-18
7360.25702 6.29093e-18
7363.85492 5.81001e-18
7367.46284 5.92755e-18
7371.07076 6.29148e-18
7374.67868 5.98627e-18
7378.28660 5.43469e-18
7381.88450 5.49922e-18
7385.49242 5.65730e-18
7389.10034 5.65060e-18
7392.70826 5.81582e-18
7396.31618 5.95260e-18
7399.91407 5.80723e-18
7403.52199 5.49910e-18
7407.12991 5.51826e-18
7410.73783 5.18548e-18
7414.34575 4.96856e-18
7417.94365 5.03787e-18
7421.55157 4.71283e-18
7425.15949 4.79230e-18
7428.76741 4.97641e-18
7432.37533 4.75910e-18
7435.97323 4.75020e-18
7439.58115 4.61001e-18
7443.18907 4.61094e-18
7446.79699 4.61324e-18
7450.39489 4.38419e-18
7454.00281 4.28985e-18
7457.61073 4.00008e-18
7461.21865 4.32590e-18
7464.82657 4.27023e-18
7468.42447 4.02546e-18
7472.03239 4.12886e-18
7475.64031 4.05097e-18
7479.24823 4.12901e-18
7482.85615 4.63820e-18
7486.45404 4.33509e-18
7490.06196 3.86519e-18
7493.66988 4.05563e-18
7497.27780 4.25483e-18
7500.88572 3.85873e-18
7504.48362 3.91852e-18
7508.09154 4.10778e-18
7511.69946 3.96721e-18
7515.30738 3.71617e-18
7518.91530 3.37938e-18
7522.51320 3.59190e-18
7526.12112 3.65215e-18
7529.72904 3.72634e-18
7533.33696 3.90196e-18
7536.94488 3.97541e-18
7540.54278 4.03300e-18
7544.15070 3.63412e-18
7547.75862 3.34585e-18
7551.36654 3.35463e-18
7554.97446 3.36342e-18
7558.57236 3.37220e-18
7562.18028 3.38099e-18
7565.78820 3.38977e-18
7569.39612 3.39854e-18
7573.00404 3.40732e-18
7576.60193 3.41609e-18
7580.20985 3.42486e-18
7583.81777 3.43363e-18
7587.42569 3.44240e-18
7591.02359 3.45116e-18
7594.63151 3.45993e-18
7598.23943 3.46869e-18
7601.84735 3.47745e-18
7605.45527 3.48620e-18
7609.05317 3.49496e-18
7612.66109 3.50371e-18
7616.26901 3.51246e-18
7619.87693 3.52121e-18
7623.48485 3.52995e-18
7627.08275 3.53869e-18
7630.69067 3.54744e-18
7634.29859 3.55618e-18
7637.90651 3.56491e-18
7641.51443 3.57365e-18
7645.11233 3.58238e-18
7648.72025 3.59111e-18
7652.32817 3.59984e-18
7655.93609 3.60857e-18
7659.54401 3.61729e-18
7663.14190 3.62601e-18
7666.74982 3.63473e-18
7670.35774 3.64345e-18
7673.96566 3.65217e-18
7677.56356 3.66088e-18
7681.17148 3.66959e-18
7684.77940 4.08384e-18
7688.38732 3.93659e-18
7691.99524 4.17577e-18
7695.59314 4.70250e-18
7699.20106 4.31201e-18
7699.99871 4.31201e-18
7701.99556 4.30912e-18
7704.00259 4.27795e-18
7705.99944 4.15347e-18
7707.99629 3.93636e-18
7710.00332 3.99562e-18
7712.00017 4.40730e-18
7713.99702 4.51550e-18
7716.00406 4.33797e-18
7718.00090 4.15980e-18
7719.99775 4.08611e-18
7722.00479 4.04398e-18
7724.00164 4.10656e-18
7725.99848 4.35705e-18
7727.99533 4.42153e-18
7730.00237 4.34847e-18
7731.99922 4.27129e-18
7733.99606 4.17555e-18
7736.00310 4.10075e-18
7737.99995 4.15359e-18
7739.99680 4.35387e-18
7742.00383 4.49036e-18
7744.00068 4.71310e-18
7745.99753 4.76181e-18
7748.00456 4.54816e-18
7750.00141 4.22957e-18
7751.99826 4.06214e-18
7753.99511 3.91295e-18
7756.00214 3.96757e-18
7757.99899 4.35961e-18
7759.99584 4.55798e-18
7762.00288 4.56919e-18
7763.99972 4.47060e-18
7765.99657 4.23006e-18
7768.00361 3.78807e-18
7770.00046 3.69759e-18
7771.99730 3.86435e-18
7774.00434 3.99616e-18
7776.00119 4.19235e-18
7777.99804 4.33447e-18
7780.00507 4.35332e-18
7782.00192 4.27190e-18
7783.99877 4.21042e-18
7785.99562 4.06791e-18
7788.00265 4.02005e-18
7789.99950 4.05828e-18
7791.99635 4.13291e-18
7794.00338 4.26619e-18
7796.00023 4.43485e-18
7797.99708 4.43882e-18
7800.00412 4.19568e-18
7802.00096 4.17370e-18
7803.99781 4.31084e-18
7806.00485 4.39388e-18
7808.00170 4.38540e-18
7809.99854 4.30820e-18
7811.99539 4.26137e-18
7814.00243 4.15268e-18
7815.99928 4.25992e-18
7817.99612 4.64474e-18
7820.00316 4.85717e-18
7822.00001 4.88214e-18
7823.99686 4.79713e-18
7826.00389 4.56410e-18
7828.00074 4.10772e-18
7829.99759 3.95854e-18
7832.00462 3.99033e-18
7834.00147 4.08797e-18
7835.99832 4.36532e-18
7837.99517 4.59104e-18
7840.00220 4.52569e-18
7841.99905 4.25294e-18
7843.99590 4.07185e-18
7846.00294 3.81151e-18
7847.99978 3.71449e-18
7849.99663 3.70357e-18
7852.00367 3.83016e-18
7854.00052 4.16869e-18
7855.99736 4.61403e-18
7858.00440 4.76694e-18
7860.00125 4.75744e-18
7861.99810 4.62949e-18
7863.99494 4.26726e-18
7866.00198 3.96880e-18
7867.99883 3.82416e-18
7869.99568 3.76451e-18
7872.00271 3.75136e-18
7873.99956 3.87295e-18
7875.99641 3.90328e-18
7878.00344 3.88446e-18
7880.00029 3.90390e-18
7881.99714 3.95737e-18
7884.00418 4.00622e-18
7886.00102 4.04779e-18
7887.99787 4.04707e-18
7889.99472 4.09499e-18
7892.00176 4.22114e-18
7893.99860 4.28262e-18
7895.99545 4.33382e-18
7898.00249 4.33380e-18
7899.99934 4.19406e-18
7901.99618 3.91199e-18
7904.00322 3.76844e-18
7906.00007 3.67715e-18
7907.99692 3.70269e-18
7910.00395 3.87793e-18
7912.00080 4.05523e-18
7913.99765 4.17541e-18
7916.00468 4.27169e-18
7918.00153 4.22664e-18
7919.99838 3.97688e-18
7921.99523 3.90924e-18
7924.00226 3.90624e-18
7925.99911 4.01653e-18
7927.99596 4.32274e-18
7930.00300 4.72339e-18
7931.99984 4.76006e-18
7933.99669 4.45534e-18
7936.00373 4.28091e-18
7938.00058 3.98844e-18
7939.99742 3.85515e-18
7942.00446 3.99647e-18
7944.00131 4.24425e-18
7945.99816 4.31659e-18
7947.99500 4.32850e-18
7950.00204 4.30367e-18
7951.99889 4.17579e-18
7953.99574 4.14340e-18
7956.00277 4.31428e-18
7957.99962 4.46559e-18
7959.99647 4.32391e-18
7962.00350 3.95023e-18
7964.00035 3.86893e-18
7965.99720 3.96903e-18
7968.00424 4.01464e-18
7970.00108 4.04048e-18
7971.99793 4.07838e-18
7973.99478 4.11116e-18
7976.00182 4.14846e-18
7977.99866 4.12276e-18
7979.99551 3.99190e-18
7982.00255 3.93627e-18
7983.99940 3.89551e-18
7985.99624 3.92594e-18
7988.00328 4.14231e-18
7990.00013 4.46363e-18
7991.99698 4.46347e-18
7994.00401 4.18083e-18
7996.00086 4.00334e-18
7997.99771 3.73957e-18
8000.00474 3.60336e-18
8002.00159 3.71916e-18
8003.99844 3.94300e-18
8005.99529 4.07704e-18
8008.00232 4.26925e-18
8009.99917 4.31285e-18
8011.99602 4.23970e-18
8014.00306 4.11208e-18
8015.99990 3.92463e-18
8017.99675 3.70770e-18
8020.00379 3.53078e-18
8022.00064 3.28472e-18
8023.99748 3.36398e-18
8026.00452 3.89968e-18
8028.00137 4.14178e-18
8029.99822 3.97647e-18
8031.99506 3.77226e-18
8034.00210 3.84700e-18
8035.99895 4.06612e-18
8037.99580 4.09270e-18
8040.00283 3.95916e-18
8041.99968 3.91217e-18
8043.99653 3.94420e-18
8046.00356 3.99144e-18
8048.00041 4.01002e-18
8049.99726 4.02855e-18
8052.00430 4.09281e-18
8054.00114 4.28208e-18
8055.99799 4.30446e-18
8057.99484 4.16110e-18
8060.00188 4.04454e-18
8061.99872 4.00573e-18
8063.99557 3.99184e-18
8066.00261 3.98572e-18
8067.99946 4.02882e-18
8069.99630 4.04533e-18
8072.00334 4.02403e-18
8074.00019 4.05491e-18
8075.99704 4.24653e-18
8078.00407 4.44996e-18
8080.00092 4.34216e-18
8081.99777 3.93216e-18
8084.00480 3.80928e-18
8086.00165 3.86963e-18
8087.99850 3.89384e-18
8089.99535 3.88349e-18
8092.00238 3.86614e-18
8093.99923 3.80247e-18
8095.99608 3.68872e-18
8098.00312 3.68196e-18
8099.99996 3.76423e-18
8101.99681 3.83932e-18
8104.00385 3.93699e-18
8106.00070 4.02938e-18
8107.99754 4.07659e-18
8110.00458 4.10021e-18
8112.00143 4.15131e-18
8113.99828 4.29894e-18
8115.99512 4.28463e-18
8118.00216 4.08610e-18
8119.99901 3.90595e-18
8121.99586 3.86865e-18
8124.00289 3.88040e-18
8125.99974 3.74818e-18
8127.99659 3.38526e-18
8130.00362 3.34350e-18
8132.00047 3.56371e-18
8133.99732 3.75405e-18
8136.00436 3.85554e-18
8138.00120 3.93596e-18
8139.99805 4.04053e-18
8141.99490 4.16445e-18
8144.00194 4.18541e-18
8145.99878 4.07167e-18
8147.99563 4.03930e-18
8150.00267 4.12992e-18
8151.99952 4.25619e-18
8153.99636 4.29806e-18
8156.00340 4.30545e-18
8158.00025 4.29144e-18
8159.99710 4.25774e-18
8162.00413 4.14712e-18
8164.00098 3.83189e-18
8165.99783 3.60791e-18
8167.99468 3.82116e-18
8170.00171 4.35959e-18
8171.99856 4.51865e-18
8173.99541 4.46472e-18
8176.00244 4.45915e-18
8177.99929 4.46470e-18
8179.99614 4.44122e-18
8182.00318 4.36387e-18
8184.00002 4.22574e-18
8185.99687 4.04544e-18
8188.00391 3.66800e-18
8190.00076 3.59531e-18
8191.99760 3.79721e-18
8194.00464 4.02045e-18
8196.00149 4.23490e-18
8197.99834 4.43685e-18
8199.99518 4.33893e-18
8202.00222 3.84015e-18
8203.99907 3.73733e-18
8205.99592 3.89840e-18
8208.00295 4.00356e-18
8209.99980 4.04108e-18
8211.99665 4.03175e-18
8214.00368 3.93066e-18
8216.00053 3.71233e-18
8217.99738 3.70092e-18
8220.00442 3.85712e-18
8222.00126 4.00950e-18
8223.99811 4.18602e-18
8225.99496 4.34622e-18
8228.00200 4.45550e-18
8229.99884 4.55664e-18
8231.99569 4.50574e-18
8234.00273 4.31156e-18
8235.99958 4.16781e-18
8237.99642 3.99832e-18
8240.00346 3.88641e-18
8242.00031 3.90351e-18
8243.99716 4.01829e-18
8246.00419 4.02211e-18
8248.00104 3.99120e-18
8249.99789 4.03393e-18
8252.00492 4.08820e-18
8254.00177 4.15534e-18
8255.99862 4.33162e-18
8257.99547 4.47946e-18
8260.00250 4.38468e-18
8261.99935 4.19646e-18
8263.99620 4.04157e-18
8266.00324 3.90914e-18
8268.00008 3.83901e-18
8269.99693 3.84386e-18
8272.00397 3.90696e-18
8274.00082 4.01073e-18
8275.99766 4.20093e-18
8278.00470 4.30274e-18
8280.00155 4.42384e-18
8281.99840 4.40708e-18
8283.99524 4.17540e-18
8286.00228 3.89720e-18
8287.99913 3.77165e-18
8289.99598 3.70984e-18
8292.00301 3.73345e-18
8293.99986 3.90977e-18
8295.99671 4.01007e-18
8298.00374 4.02070e-18
8300.00059 4.04311e-18
8301.99744 4.16744e-18
8304.00448 4.36090e-18
8306.00132 4.42334e-18
8307.99817 4.39057e-18
8309.99502 4.36547e-18
8312.00206 4.30425e-18
8313.99890 4.26212e-18
8315.99575 4.30087e-18
8318.00279 4.37381e-18
8319.99964 4.26750e-18
8321.99648 3.88984e-18
8324.00352 3.80471e-18
8326.00037 3.92500e-18
8327.99722 4.06108e-18
8330.00425 4.18720e-18
8332.00110 4.31127e-18
8333.99795 4.35090e-18
8335.99480 4.35778e-18
8338.00183 4.25113e-18
8339.99868 3.89618e-18
8341.99553 3.75005e-18
8344.00256 3.88258e-18
8345.99941 4.16341e-18
8347.99626 4.51676e-18
8350.00330 5.10781e-18
8352.00014 5.18798e-18
8353.99699 4.79716e-18
8356.00403 4.53158e-18
8358.00088 4.36992e-18
8359.99772 4.23163e-18
8362.00476 4.07637e-18
8364.00161 3.90974e-18
8365.99846 3.86907e-18
8367.99530 3.91778e-18
8370.00234 4.02743e-18
8371.99919 4.27066e-18
8373.99604 4.48371e-18
8376.00307 4.57500e-18
8377.99992 4.59333e-18
8379.99677 4.49148e-18
8382.00380 4.15794e-18
8384.00065 4.01431e-18
8385.99750 3.95151e-18
8388.00454 3.97619e-18
8390.00138 4.11028e-18
8391.99823 4.32880e-18
8393.99508 4.54739e-18
8396.00212 4.89580e-18
8397.99896 5.01817e-18
8399.99581 5.02255e-18
8402.00285 4.90462e-18
8403.99970 4.58502e-18
8405.99654 4.20061e-18
8408.00358 4.04030e-18
8410.00043 4.02554e-18
8411.99728 3.98136e-18
8414.00431 3.96781e-18
8416.00116 3.96847e-18
8417.99801 3.94363e-18
8419.99486 3.97744e-18
8422.00189 4.19863e-18
8423.99874 4.60193e-18
8425.99559 4.79643e-18
8428.00262 4.98323e-18
8429.99947 4.93325e-18
8431.99632 4.51522e-18
8434.00336 4.11480e-18
8436.00020 4.02566e-18
8437.99705 4.10795e-18
8440.00409 4.18445e-18
8442.00094 4.42849e-18
8443.99778 4.47480e-18
8446.00482 4.29127e-18
8448.00167 4.16898e-18
8449.99852 4.28640e-18
8451.99536 4.51087e-18
8454.00240 4.49327e-18
8455.99925 4.21580e-18
8457.99610 4.16371e-18
8460.00313 4.21974e-18
8461.99998 4.32040e-18
8463.99683 4.52391e-18
8466.00386 4.73079e-18
8468.00071 4.63019e-18
8469.99756 4.18612e-18
8472.00460 4.05264e-18
8474.00144 4.08160e-18
8475.99829 4.12198e-18
8477.99514 4.19862e-18
8480.00218 4.26832e-18
8481.99902 4.22476e-18
8483.99587 4.07588e-18
8486.00291 4.04415e-18
8487.99976 4.07983e-18
8489.99660 4.11796e-18
8492.00364 4.14091e-18
8494.00049 4.20440e-18
8495.99734 4.38471e-18
8498.00437 4.67062e-18
8500.00122 4.74629e-18
8501.99807 4.66415e-18
8504.00510 4.59380e-18
8506.00195 4.47289e-18
8507.99880 4.37368e-18
8509.99565 4.36540e-18
8512.00268 4.40546e-18
8513.99953 4.31363e-18
8515.99638 4.01645e-18
8518.00342 3.96833e-18
8520.00026 4.15031e-18
8521.99711 4.29360e-18
8524.00415 4.31286e-18
8526.00100 4.27610e-18
8527.99784 4.22817e-18
8529.99469 4.17079e-18
8532.00173 4.03417e-18
8533.99858 3.67781e-18
8535.99542 3.55895e-18
8538.00246 3.84486e-18
8539.99931 4.25710e-18
8541.99616 4.38766e-18
8544.00319 4.35214e-18
8546.00004 4.40227e-18
8547.99689 4.47761e-18
8550.00392 4.52277e-18
8552.00077 4.54569e-18
8553.99762 4.53840e-18
8556.00466 4.48209e-18
8558.00150 4.37972e-18
8559.99835 4.27849e-18
8561.99520 4.05636e-18
8564.00224 4.04649e-18
8565.99908 4.33122e-18
8567.99593 4.58641e-18
8570.00297 4.60073e-18
8571.99982 4.48167e-18
8573.99666 4.27864e-18
8576.00370 3.79191e-18
8578.00055 3.61742e-18
8579.99740 3.67222e-18
8582.00443 3.80608e-18
8584.00128 4.00160e-18
8585.99813 4.25317e-18
8587.99498 4.37099e-18
8590.00201 4.37714e-18
8591.99886 4.43381e-18
8593.99571 4.53213e-18
8596.00274 4.56385e-18
8597.99959 4.49075e-18
8599.99644 4.36250e-18
8602.00348 4.25071e-18
8604.00032 4.10788e-18
8605.99717 4.01990e-18
8608.00421 3.96672e-18
8610.00106 3.92948e-18
8611.99790 3.90353e-18
8613.99475 3.89948e-18
8616.00179 3.93846e-18
8617.99864 4.03406e-18
8619.99548 4.03633e-18
8622.00252 3.93719e-18
8623.99937 3.90952e-18
8625.99622 3.94294e-18
8628.00325 4.01054e-18
8630.00010 4.09294e-18
8631.99695 4.19503e-18
8634.00398 4.38945e-18
8636.00083 4.79165e-18
8637.99768 4.95287e-18
8640.00472 4.97427e-18
8642.00156 4.83601e-18
8643.99841 4.42344e-18
8645.99526 3.82901e-18
8648.00230 3.67411e-18
8649.99914 3.82633e-18
8651.99599 3.98849e-18
8654.00303 4.39222e-18
8655.99988 4.63402e-18
8657.99672 4.57854e-18
8660.00376 4.35289e-18
8662.00061 4.08784e-18
8663.99746 3.53974e-18
8665.99430 3.47089e-18
8668.00134 3.82825e-18
8669.99819 4.10234e-18
8671.99504 4.27995e-18
8674.00207 4.37812e-18
8675.99892 4.29380e-18
8677.99577 4.02211e-18
8680.00280 3.82021e-18
8681.99965 3.52138e-18
8683.99650 3.38268e-18
8686.00354 3.39349e-18
8688.00038 3.52562e-18
8689.99723 3.81956e-18
8692.00427 4.30985e-18
8694.00112 4.46673e-18
8695.99796 4.38030e-18
8698.00500 4.31884e-18
8700.00185 4.22250e-18
8701.99870 4.12149e-18
8703.99554 4.04937e-18
8706.00258 3.98850e-18
8707.99943 3.88999e-18
8709.99628 3.67952e-18
8712.00331 3.65713e-18
8714.00016 3.80074e-18
8715.99701 3.97303e-18
8718.00404 4.17313e-18
8720.00089 4.37708e-18
8721.99774 4.35354e-18
8724.00478 4.08629e-18
8726.00162 3.93767e-18
8727.99847 3.73694e-18
8729.99532 3.65897e-18
8732.00236 3.78722e-18
8733.99920 3.99523e-18
8735.99605 4.07388e-18
8738.00309 4.12246e-18
8739.99994 4.06521e-18
8741.99678 3.83054e-18
8744.00382 3.69901e-18
8746.00067 3.63725e-18
8747.99752 3.68345e-18
8750.00455 3.96261e-18
8752.00140 4.49548e-18
8753.99825 4.73059e-18
8755.99510 4.80060e-18
8758.00213 4.84881e-18
8759.99898 4.81261e-18
8761.99583 4.78950e-18
8764.00286 4.91435e-18
8765.99971 5.14159e-18
8767.99656 4.99530e-18
8770.00360 4.44424e-18
8772.00044 4.11284e-18
8773.99729 3.84141e-18
8776.00433 3.68622e-18
8778.00118 3.70189e-18
8779.99802 3.84801e-18
8782.00506 4.00012e-18
8784.00191 4.35447e-18
8785.99876 4.40183e-18
8787.99560 4.13441e-18
8790.00264 3.96947e-18
8791.99949 4.05218e-18
8793.99634 4.22307e-18
8796.00337 4.25744e-18
8798.00022 4.26212e-18
8799.99707 4.15306e-18
8802.00410 3.86438e-18
8804.00095 3.66030e-18
8805.99780 3.53383e-18
8807.99465 3.49310e-18
8810.00168 3.62728e-18
8811.99853 3.97218e-18
8813.99538 4.09841e-18
8816.00242 4.02440e-18
8817.99926 4.10937e-18
8819.99611 4.37252e-18
8822.00315 4.68576e-18
8824.00000 5.00282e-18
8825.99684 5.38655e-18
8828.00388 5.34596e-18
8830.00073 4.85211e-18
8831.99758 4.51688e-18
8834.00461 4.17109e-18
8836.00146 3.94443e-18
8837.99831 3.95604e-18
8840.00534 4.13710e-18
8842.00219 4.27006e-18
8843.99904 4.59652e-18
8845.99589 4.57023e-18
8848.00292 4.16707e-18
8849.99977 3.82699e-18
8851.99662 3.70507e-18
8854.00366 3.67615e-18
8856.00050 3.61819e-18
8857.99735 3.47368e-18
8860.00439 3.62494e-18
8862.00124 4.15834e-18
8863.99808 4.50625e-18
8865.99493 4.53926e-18
8868.00197 4.45279e-18
8869.99882 4.45662e-18
8871.99566 4.44404e-18
8874.00270 4.52544e-18
8875.99955 4.75979e-18
8877.99640 4.86884e-18
8880.00343 4.87659e-18
8882.00028 4.77311e-18
8883.99713 4.47062e-18
8886.00416 3.93831e-18
8888.00101 3.75112e-18
8889.99786 3.69249e-18
8892.00490 3.85115e-18
8894.00174 4.45338e-18
8895.99859 4.93246e-18
8897.99544 4.83891e-18
8900.00248 4.38812e-18
8901.99932 4.06745e-18
8903.99617 3.59097e-18
8906.00321 3.34405e-18
8908.00006 3.22424e-18
8909.99690 3.26467e-18
8912.00394 3.56775e-18
8914.00079 4.03028e-18
8915.99764 4.17129e-18
8918.00467 4.17031e-18
8920.00152 4.01198e-18
8921.99837 3.48578e-18
8923.99522 3.18356e-18
8926.00225 3.28820e-18
8927.99910 3.58137e-18
8929.99595 3.78765e-18
8932.00298 4.08660e-18
8933.99983 4.16553e-18
8935.99668 3.99429e-18
8938.00372 3.94095e-18
8940.00056 4.08025e-18
8941.99741 4.24372e-18
8944.00445 4.24500e-18
8946.00130 4.13917e-18
8947.99814 4.08030e-18
8949.99499 4.06150e-18
8952.00203 3.95249e-18
8953.99888 3.73032e-18
8955.99572 3.48303e-18
8958.00276 3.24070e-18
8959.99961 2.96430e-18
8961.99646 3.01952e-18
8964.00349 3.52283e-18
8966.00034 3.70818e-18
8967.99719 3.64231e-18
8970.00422 3.54606e-18
8972.00107 3.50784e-18
8973.99792 3.47941e-18
8976.00496 3.51308e-18
8978.00180 3.58459e-18
8979.99865 3.71282e-18
8981.99550 3.93203e-18
8984.00254 4.13672e-18
8985.99938 4.33052e-18
8987.99623 4.49002e-18
8990.00327 4.46593e-18
8992.00012 4.25698e-18
8993.99696 4.08644e-18
8996.00400 3.76814e-18
8998.00085 3.63995e-18
8999.99770 3.79220e-18
9001.99454 4.06824e-18
9004.00158 4.28271e-18
9005.99843 4.54240e-18
9007.99528 4.68266e-18
9010.00231 4.69459e-18
9011.99916 4.76056e-18
9013.99601 4.94797e-18
9016.00304 5.07825e-18
9017.99989 4.94264e-18
9019.99674 4.58763e-18
9022.00378 4.46697e-18
9024.00062 4.51607e-18
9025.99747 4.46774e-18
9028.00451 4.35927e-18
9030.00136 4.21119e-18
9031.99820 3.97889e-18
9033.99505 3.68246e-18
9036.00209 3.69675e-18
9037.99894 4.13368e-18
9039.99578 4.20053e-18
9042.00282 4.00440e-18
9043.99967 3.77066e-18
9045.99652 3.52874e-18
9048.00355 3.28304e-18
9050.00040 3.27258e-18
9051.99725 3.51754e-18
9054.00428 3.63800e-18
9056.00113 3.70381e-18
9057.99798 3.83527e-18
9059.99483 4.11664e-18
9062.00186 4.41868e-18
9063.99871 4.49149e-18
9065.99556 4.39748e-18
9068.00260 4.30238e-18
9069.99944 4.03740e-18
9071.99629 3.94773e-18
9074.00333 4.14248e-18
9076.00018 4.36792e-18
9077.99702 4.32902e-18
9080.00406 4.12187e-18
9082.00091 3.96844e-18
9083.99776 3.72156e-18
9085.99460 3.61358e-18
9088.00164 3.70588e-18
9089.99849 3.78341e-18
9091.99534 3.63697e-18
9094.00237 3.34473e-18
9095.99922 3.38898e-18
9097.99607 3.73284e-18
9100.00310 3.96765e-18
9101.99995 4.28199e-18
9103.99680 4.42235e-18
9106.00384 4.19102e-18
9108.00068 3.72995e-18
9109.99753 3.50042e-18
9112.00457 3.27988e-18
9114.00142 3.26013e-18
9115.99826 3.49600e-18
9117.99511 3.69234e-18
9120.00215 3.76484e-18
9121.99900 3.79353e-18
9123.99584 3.84843e-18
9126.00288 3.91519e-18
9127.99973 3.94350e-18
9129.99658 3.91046e-18
9132.00361 3.92605e-18
9134.00046 4.06250e-18
9135.99731 4.18202e-18
9138.00434 4.06649e-18
9140.00119 3.74177e-18
9141.99804 3.57726e-18
9143.99489 3.37135e-18
9146.00192 3.37895e-18
9147.99877 3.69912e-18
9149.99562 4.05708e-18
9152.00266 4.20890e-18
9153.99950 4.26852e-18
9155.99635 4.22380e-18
9158.00339 3.99462e-18
9160.00024 3.84735e-18
9161.99708 3.72654e-18
9164.00412 3.64717e-18
9166.00097 3.62288e-18
9167.99782 3.64643e-18
9170.00485 3.73477e-18
9172.00170 3.92656e-18
9173.99855 4.07463e-18
9175.99540 4.27669e-18
9178.00243 4.37436e-18
9179.99928 4.27960e-18
9181.99613 4.07565e-18
9184.00316 3.94564e-18
9186.00001 3.77141e-18
9187.99686 3.73569e-18
9190.00390 3.89547e-18
9192.00074 3.93674e-18
9193.99759 3.75096e-18
9196.00463 3.50538e-18
9198.00148 3.44632e-18
9199.99832 3.50848e-18
9201.99517 3.53017e-18
9204.00221 3.54489e-18
9205.99906 3.60298e-18
9207.99590 3.71406e-18
9210.00294 3.85143e-18
9211.99979 4.01601e-18
9213.99664 4.25309e-18
9216.00367 4.20263e-18
9218.00052 3.72670e-18
9219.99737 3.61905e-18
9222.00440 3.93708e-18
9224.00125 4.26264e-18
9225.99810 4.29082e-18
9227.99495 4.16364e-18
9230.00198 4.22135e-18
9231.99883 4.42223e-18
9233.99568 4.52363e-18
9236.00272 4.60732e-18
9237.99956 4.60573e-18
9239.99641 4.43679e-18
9242.00345 4.17300e-18
9244.00030 4.11064e-18
9245.99714 4.26346e-18
9248.00418 4.22248e-18
9250.00103 4.06847e-18
9251.99788 3.90774e-18
9254.00491 3.73592e-18
9256.00176 3.57428e-18
9257.99861 3.53532e-18
9259.99546 3.65333e-18
9262.00249 3.59753e-18
9263.99934 3.37760e-18
9265.99619 3.26009e-18
9268.00322 3.28544e-18
9270.00007 3.36306e-18
9271.99692 3.41488e-18
9274.00396 3.49346e-18
9276.00080 3.47726e-18
9277.99765 3.29687e-18
9279.99450 3.28273e-18
9282.00154 3.46890e-18
9283.99838 3.69198e-18
9285.99523 3.81981e-18
9288.00227 3.90731e-18
9289.99912 4.05811e-18
9291.99596 4.40046e-18
9294.00300 4.41448e-18
9295.99985 3.87236e-18
9297.99670 3.59276e-18
9300.00373 4.16587e-18
9302.00058 5.22840e-18
9303.99743 5.62567e-18
9306.00446 6.10211e-18
9308.00131 5.54123e-18
9309.99816 3.34518e-18
9312.00520 1.90497e-18
9314.00204 2.22340e-18
9315.99889 3.34103e-18
9317.99574 3.66559e-18
9320.00278 3.61168e-18
9321.99962 3.88240e-18
9323.99647 4.31943e-18
9326.00351 4.76985e-18
9328.00036 5.35804e-18
9329.99720 5.85260e-18
9332.00424 5.74884e-18
9334.00109 5.07804e-18
9335.99794 4.73918e-18
9337.99478 4.37305e-18
9340.00182 4.20847e-18
9341.99867 4.39988e-18
9343.99552 4.57898e-18
9346.00255 4.30586e-18
9347.99940 3.69259e-18
9349.99625 3.50570e-18
9352.00328 3.56966e-18
9354.00013 3.64470e-18
9355.99698 3.76116e-18
9358.00402 3.94195e-18
9360.00086 4.22643e-18
9361.99771 4.59820e-18
9364.00475 4.79451e-18
9366.00160 4.89059e-18
9367.99844 4.93740e-18
9369.99529 4.80144e-18
9372.00233 4.79717e-18
9373.99918 5.16296e-18
9375.99602 5.68340e-18
9378.00306 5.69971e-18
9379.99991 5.38728e-18
9381.99676 4.97480e-18
9384.00379 4.05334e-18
9386.00064 3.56790e-18
9387.99749 3.91186e-18
9390.00452 4.53999e-18
9392.00137 4.53755e-18
9393.99822 4.12700e-18
9395.99507 3.92137e-18
9398.00210 3.65198e-18
9399.99895 3.55097e-18
9401.99580 3.74679e-18
9404.00284 3.96268e-18
9405.99968 3.83321e-18
9407.99653 3.44955e-18
9410.00357 3.25901e-18
9412.00042 3.11235e-18
9413.99726 3.02473e-18
9416.00430 2.96824e-18
9418.00115 3.00204e-18
9419.99800 3.21481e-18
9421.99484 3.58480e-18
9424.00188 3.73755e-18
9425.99873 3.71841e-18
9427.99558 3.78878e-18
9430.00261 3.83124e-18
9431.99946 4.00199e-18
9433.99631 4.36813e-18
9436.00334 4.89426e-18
9438.00019 5.65605e-18
9439.99704 7.32949e-18
9442.00408 7.56267e-18
9444.00092 6.57095e-18
9445.99777 5.53696e-18
9448.00481 4.61228e-18
9450.00166 3.76560e-18
9451.99850 3.62014e-18
9453.99535 4.34981e-18
9456.00239 4.31849e-18
9457.99924 3.86252e-18
9459.99608 3.44293e-18
9462.00312 3.05237e-18
9463.99997 2.70711e-18
9465.99682 2.51934e-18
9468.00385 2.37532e-18
9470.00070 2.64934e-18
9471.99755 3.50784e-18
9474.00458 4.09106e-18
9476.00143 4.51629e-18
9477.99828 4.70789e-18
9479.99513 4.42989e-18
9482.00216 3.69856e-18
9483.99901 3.47333e-18
9485.99586 3.60266e-18
9488.00290 3.56074e-18
9489.99974 3.36852e-18
9491.99659 3.20490e-18
9494.00363 3.13391e-18
9496.00048 3.12199e-18
9497.99732 3.37116e-18
9500.00436 3.95694e-18
9502.00121 4.39875e-18
9503.99806 4.97482e-18
9505.99490 5.27217e-18
9508.00194 5.08682e-18
9509.99879 4.59448e-18
9511.99564 4.11588e-18
9514.00267 3.30037e-18
9515.99952 2.98253e-18
9517.99637 2.99387e-18
9520.00340 3.10770e-18
9522.00025 3.32330e-18
9523.99710 3.62330e-18
9526.00414 3.92253e-18
9528.00098 4.40502e-18
9529.99783 4.35928e-18
9532.00487 3.68520e-18
9534.00172 3.33352e-18
9535.99856 3.47792e-18
9537.99541 3.64827e-18
9540.00245 3.27112e-18
9541.99930 2.37660e-18
9543.99614 2.63237e-18
9546.00318 4.06650e-18
9548.00003 4.91074e-18
9549.99688 5.42880e-18
9552.00391 5.61271e-18
9554.00076 5.31325e-18
9555.99761 4.58464e-18
9557.99446 3.93382e-18
9560.00149 2.65596e-18
9561.99834 2.47201e-18
9563.99519 3.44065e-18
9566.00222 4.43333e-18
9567.99907 5.07216e-18
9569.99592 5.55239e-18
9572.00296 5.37162e-18
9573.99980 4.31357e-18
9575.99665 3.71768e-18
9578.00369 3.18823e-18
9580.00054 2.75068e-18
9581.99738 2.33955e-18
9584.00442 2.06051e-18
9586.00127 2.23552e-18
9587.99812 2.97177e-18
9590.00515 3.30421e-18
9592.00200 3.48961e-18
9593.99885 3.63951e-18
9595.99570 3.74386e-18
9598.00273 3.81878e-18
9599.99958 3.91045e-18
9601.99643 4.00012e-18
9604.00346 4.08389e-18
9606.00031 4.26997e-18
9607.99716 4.23304e-18
9610.00420 3.97052e-18
9612.00104 3.56909e-18
9613.99789 2.96078e-18
9615.99474 2.07470e-18
9618.00178 2.20028e-18
9619.99862 3.66579e-18
9621.99547 4.05581e-18
9624.00251 3.51182e-18
9625.99936 2.83596e-18
9627.99620 2.30670e-18
9630.00324 1.78546e-18
9632.00009 1.96569e-18
9633.99694 3.05549e-18
9636.00397 3.55537e-18
9638.00082 3.90030e-18
9639.99767 3.98191e-18
9642.00470 3.60126e-18
9644.00155 3.00293e-18
9645.99840 2.96967e-18
9647.99525 3.40730e-18
9650.00228 3.56944e-18
9651.99913 3.74768e-18
9653.99598 3.75278e-18
9656.00302 3.50092e-18
9657.99986 3.13231e-18
9659.99671 2.83945e-18
9662.00375 2.44758e-18
9664.00060 2.44564e-18
9665.99744 2.89052e-18
9668.00448 3.15536e-18
9670.00133 3.24392e-18
9671.99818 3.24611e-18
9673.99502 3.18508e-18
9676.00206 3.03738e-18
9677.99891 2.91505e-18
9679.99576 2.62783e-18
9682.00279 2.65537e-18
9683.99964 3.17417e-18
9685.99649 3.58262e-18
9688.00352 3.40964e-18
9690.00037 2.88181e-18
9691.99722 2.66277e-18
9694.00426 2.53268e-18
9696.00110 2.46286e-18
9697.99795 2.48600e-18
9699.99480 2.53517e-18
9702.00184 2.56871e-18
9703.99868 2.62050e-18
9705.99553 2.77695e-18
9708.00257 3.09924e-18
9709.99942 3.27011e-18
9711.99626 3.37268e-18
9714.00330 3.43681e-18
9716.00015 3.43528e-18
9717.99700 3.41589e-18
9720.00403 3.51776e-18
9722.00088 3.77423e-18
9723.99773 3.80027e-18
9726.00476 3.73933e-18
9728.00161 3.51911e-18
9729.99846 3.00486e-18
9731.99531 2.46958e-18
9734.00234 2.27793e-18
9735.99919 2.26747e-18
9737.99604 2.48275e-18
9740.00308 3.08325e-18
9741.99992 3.53600e-18
9743.99677 3.95918e-18
9746.00381 4.23824e-18
9748.00066 4.21607e-18
9749.99750 3.95114e-18
9751.99435 3.71367e-18
9754.00139 3.29899e-18
9755.99824 3.07082e-18
9757.99508 2.91365e-18
9760.00212 2.92845e-18
9761.99897 3.29265e-18
9763.99582 3.87274e-18
9766.00285 3.88802e-18
9767.99970 3.41251e-18
9769.99655 3.12632e-18
9772.00358 2.65347e-18
9774.00043 2.50402e-18
9775.99728 3.01655e-18
9778.00432 3.79255e-18
9780.00116 3.88617e-18
9781.99801 3.40994e-18
9784.00505 3.32718e-18
9786.00190 3.53487e-18
9787.99874 3.49338e-18
9789.99559 3.02778e-18
9792.00263 2.45234e-18
9793.99948 2.15506e-18
9795.99632 1.87842e-18
9798.00336 2.15335e-18
9800.00021 3.36713e-18
9801.99706 3.85059e-18
9804.00409 3.45476e-18
9806.00094 2.82736e-18
9807.99779 2.43186e-18
9809.99464 1.99947e-18
9812.00167 2.09846e-18
9813.99852 3.00222e-18
9815.99537 3.25879e-18
9818.00240 2.94213e-18
9819.99925 2.48704e-18
9821.99610 2.01098e-18
9824.00314 1.44909e-18
9825.99998 1.59668e-18
9827.99683 2.67786e-18
9830.00387 3.04903e-18
9832.00072 2.99597e-18
9833.99756 2.83416e-18
9836.00460 2.57584e-18
9838.00145 2.25961e-18
9839.99830 2.33393e-18
9841.99514 2.82504e-18
9844.00218 3.05246e-18
9845.99903 3.20580e-18
9847.99588 3.32203e-18
9850.00291 3.42896e-18
9851.99976 3.48283e-18
9853.99661 3.38638e-18
9856.00364 3.08369e-18
9858.00049 3.01305e-18
9859.99734 3.11379e-18
9862.00438 3.16377e-18
9864.00122 3.20805e-18
9865.99807 3.17750e-18
9868.00511 2.92612e-18
9870.00196 2.46278e-18
9871.99880 2.18340e-18
9873.99565 1.82457e-18
9876.00269 1.80362e-18
9877.99954 2.28561e-18
9879.99638 2.75175e-18
9882.00342 2.78670e-18
9884.00027 2.57927e-18
9885.99712 2.47552e-18
9888.00415 2.23497e-18
9890.00100 2.25377e-18
9891.99785 2.72909e-18
9893.99470 2.94182e-18
9896.00173 2.38562e-18
9897.99858 1.43192e-18
9899.99543 1.23893e-18
9902.00246 1.59841e-18
9903.99931 1.81067e-18
9905.99616 2.17679e-18
9908.00320 2.41955e-18
9910.00004 2.42308e-18
9911.99689 2.32078e-18
9914.00393 2.33388e-18
9916.00078 2.32711e-18
9917.99762 2.50647e-18
9920.00466 3.04290e-18
9922.00151 3.26215e-18
9923.99836 3.01708e-18
9925.99520 2.60033e-18
9928.00224 2.29415e-18
9929.99909 1.85136e-18
9931.99594 2.02682e-18
9934.00297 2.92324e-18
9935.99982 3.50042e-18
9937.99667 3.90019e-18
9940.00370 4.05298e-18
9942.00055 3.66747e-18
9943.99740 2.74684e-18
9946.00444 2.83596e-18
9948.00128 4.04020e-18
9949.99813 4.39204e-18
9951.99498 3.98277e-18
9954.00202 3.49744e-18
9955.99886 3.28628e-18
9957.99571 3.15683e-18
9960.00275 3.00079e-18
9961.99960 2.58148e-18
9963.99644 2.80693e-18
9966.00348 4.19282e-18
9968.00033 4.75330e-18
9969.99718 3.40300e-18
9972.00421 1.20138e-18
9974.00106 5.18899e-19
9975.99791 7.81926e-19
9978.00494 8.42451e-19
9980.00179 1.10193e-18
9981.99864 1.40037e-18
9983.99549 1.73814e-18
9986.00252 2.10456e-18
9987.99937 2.43703e-18
9989.99622 2.79182e-18
9992.00326 3.01587e-18
9994.00010 3.16425e-18
9995.99695 3.21556e-18
9998.00399 3.10540e-18
10000.00084 2.97177e-18
