# wavelength flux
3259.99699 2.15733e-17
3262.00403 1.45883e-17
3264.00088 2.56960e-17
3265.99772 3.87813e-17
3268.00476 1.59036e-17
3270.00161 4.17601e-17
3271.99846 1.63006e-17
3273.99530 5.37266e-18
3276.00234 2.39241e-17
3277.99919 1.92128e-18
3279.99604 -1.34652e-17
3282.00307 -3.23362e-18
3283.99992 1.16557e-17
3285.99677 1.00601e-17
3288.00380 7.92320e-18
3290.00065 2.77622e-17
3291.99750 1.56242e-17
3294.00454 7.12812e-18
3296.00138 1.32762e-17
3297.99823 3.48777e-17
3299.99508 2.95350e-17
3302.00212 1.90406e-17
3303.99896 2.33099e-17
3305.99581 1.29592e-17
3308.00285 4.25014e-17
3309.99970 4.82130e-17
3311.99654 3.90591e-17
3314.00358 1.22561e-17
3316.00043 1.47429e-17
3317.99728 2.36541e-17
3320.00431 3.21781e-17
3322.00116 2.57333e-17
3323.99801 2.09809e-17
3325.99486 2.15509e-17
3328.00189 1.77547e-17
3329.99874 2.41069e-18
3331.99559 6.79379e-18
3334.00262 2.71995e-17
3335.99947 1.99455e-17
3337.99632 5.83334e-18
3340.00336 2.47740e-17
3342.00020 2.07885e-17
3343.99705 2.43734e-17
3346.00409 -3.72145e-18
3348.00094 8.58761e-18
3349.99778 2.56965e-17
3352.00482 1.61750e-17
3354.00167 2.32246e-17
3355.99852 2.89756e-17
3357.99536 3.07521e-17
3360.00240 7.90818e-18
3361.99925 1.88019e-17
3363.99610 -5.15272e-18
3366.00313 5.45513e-18
3367.99998 2.37920e-17
3369.99683 2.26884e-17
3372.00386 1.43287e-17
3374.00071 2.41316e-17
3375.99756 2.09781e-17
3378.00460 3.08838e-17
3380.00144 2.14523e-17
3381.99829 1.71845e-17
3383.99514 1.57288e-17
3386.00218 2.15439e-17
3387.99902 3.25429e-17
3389.99587 2.62755e-17
3392.00291 2.33928e-17
3393.99976 1.45987e-17
3395.99660 1.40185e-17
3398.00364 1.97775e-17
3400.00049 4.10675e-17
3401.99734 9.72807e-18
3404.00437 2.14541e-17
3406.00122 1.83151e-17
3407.99807 1.60266e-17
3409.99492 3.00575e-17
3412.00195 2.10151e-17
3413.99880 2.12113e-17
3415.99565 1.98119e-17
3418.00268 1.93510e-17
3419.99953 1.44611e-17
3421.99638 1.17309e-17
3424.00342 1.07761e-17
3426.00026 2.19297e-17
3427.99711 1.56121e-17
3430.00415 1.59591e-17
3432.00100 1.83980e-17
3433.99784 1.57635e-17
3436.00488 1.79521e-17
3438.00173 1.66183e-17
3439.99858 8.43845e-18
3441.99542 1.26582e-17
3444.00246 1.14614e-17
3445.99931 1.98403e-17
3447.99616 3.17528e-17
3450.00319 2.78809e-17
3452.00004 1.58669e-17
3453.99689 1.03617e-17
3456.00392 1.18323e-17
3458.00077 1.34782e-17
3459.99762 1.48752e-17
3462.00466 8.55434e-18
3464.00150 1.93142e-17
3465.99835 2.46106e-17
3467.99520 1.83753e-17
3470.00224 2.05816e-17
3471.99908 2.23612e-17
3473.99593 1.97338e-17
3476.00297 3.07056e-17
3477.99982 2.83996e-17
3479.99666 2.58548e-17
3482.00370 1.71632e-17
3484.00055 2.11842e-17
3485.99740 2.46044e-17
3488.00443 1.96278e-17
3490.00128 2.36732e-17
3491.99813 1.92048e-17
3493.99498 7.42815e-18
3496.00201 2.38603e-17
3497.99886 2.51877e-17
3499.99571 1.91763e-17
3502.00274 2.66084e-17
3503.99959 2.17101e-17
3505.99644 1.87041e-17
3508.00348 2.11684e-17
3510.00032 2.62566e-17
3511.99717 2.09876e-17
3514.00421 2.33946e-17
3516.00106 1.69950e-17
3517.99790 2.53057e-17
3520.00494 3.07843e-17
3522.00179 2.66559e-17
3523.99864 2.44310e-17
3525.99548 2.22513e-17
3528.00252 3.72507e-17
3529.99937 2.33493e-17
3531.99622 1.61052e-17
3534.00325 2.07986e-17
3536.00010 2.68838e-17
3537.99695 2.41093e-17
3540.00398 2.48951e-17
3542.00083 2.27564e-17
3543.99768 3.24181e-17
3546.00472 2.66505e-17
3548.00156 2.64539e-17
3549.99841 2.48714e-17
3551.99526 2.14119e-17
3554.00230 2.43750e-17
3555.99914 2.70702e-17
3557.99599 2.34195e-17
3560.00303 2.58670e-17
3561.99988 2.54534e-17
3563.99672 1.74824e-17
3566.00376 1.62593e-17
3568.00061 2.24944e-17
3569.99746 2.21275e-17
3572.00449 1.83599e-17
3574.00134 2.57103e-17
3575.99819 2.45794e-17
3577.99504 2.30904e-17
3580.00207 2.86237e-17
3581.99892 2.43425e-17
3583.99577 1.90817e-17
3586.00280 2.26111e-17
3587.99965 3.18698e-17
3589.99650 2.27552e-17
3592.00354 2.58624e-17
3594.00038 1.61008e-17
3595.99723 1.65889e-17
3598.00427 2.27310e-17
3600.00112 2.39515e-17
3601.99796 1.88628e-17
3604.00500 2.14024e-17
3606.00185 2.43520e-17
3607.99870 1.97122e-17
3609.99554 2.19183e-17
3612.00258 2.03803e-17
3613.99943 2.00314e-17
3615.99628 2.14651e-17
3618.00331 1.99759e-17
3620.00016 2.42248e-17
3621.99701 2.64782e-17
3624.00404 2.79954e-17
3626.00089 2.44260e-17
3627.99774 3.13392e-17
3630.00478 1.93095e-17
3632.00162 2.07432e-17
3633.99847 3.05414e-17
3635.99532 3.02222e-17
3638.00236 1.70458e-17
3639.99920 2.60103e-17
3641.99605 2.10520e-17
3644.00309 2.14949e-17
3645.99994 1.60738e-17
3647.99678 2.87772e-17
3650.00382 3.10090e-17
3652.00067 2.00151e-17
3653.99752 2.54309e-17
3656.00455 2.23127e-17
3658.00140 1.26012e-17
3659.99825 1.57665e-17
3661.99510 1.36776e-17
3664.00213 2.38492e-17
3665.99898 2.67202e-17
3667.99583 1.81958e-17
3670.00286 2.25885e-17
3671.99971 2.70141e-17
3673.99656 2.53874e-17
3676.00360 2.58571e-17
3678.00044 1.94639e-17
3679.99729 1.44312e-17
3682.00433 1.84895e-17
3684.00118 2.33186e-17
3685.99802 2.17161e-17
3688.00506 2.55990e-17
3690.00191 2.49165e-17
3691.99876 2.46376e-17
3693.99560 2.43636e-17
3696.00264 2.27777e-17
3697.99949 2.27226e-17
3699.99634 2.68603e-17
3702.00337 2.59383e-17
3704.00022 2.73319e-17
3705.99707 3.60714e-17
3708.00410 3.21581e-17
3710.00095 2.49947e-17
3711.99780 2.41700e-17
3714.00484 2.33116e-17
3716.00168 1.88842e-17
3717.99853 1.68877e-17
3719.99538 2.47013e-17
3722.00242 2.29971e-17
3723.99926 2.79361e-17
3725.99611 2.32498e-17
3728.00315 1.86731e-17
3730.00000 2.36771e-17
3731.99684 2.55946e-17
3734.00388 2.32687e-17
3736.00073 2.51249e-17
3737.99758 2.33952e-17
3740.00461 1.92314e-17
3742.00146 2.47132e-17
3743.99831 2.37862e-17
3745.99516 2.50849e-17
3748.00219 2.14327e-17
3749.99904 1.84568e-17
3751.99589 2.55187e-17
3754.00292 2.73589e-17
3755.99977 2.48787e-17
3757.99662 2.37443e-17
3760.00366 2.39684e-17
3762.00050 1.99493e-17
3763.99735 2.10079e-17
3766.00439 2.09654e-17
3768.00124 2.31601e-17
3769.99808 2.41785e-17
3772.00512 2.03714e-17
3774.00197 2.58724e-17
3775.99882 2.36730e-17
3777.99566 2.35339e-17
3780.00270 2.33949e-17
3781.99955 2.34208e-17
3783.99640 2.34468e-17
3786.00343 2.34728e-17
3788.00028 2.34988e-17
3789.99713 2.35247e-17
3792.00416 2.35507e-17
3794.00101 2.35767e-17
3795.99786 2.36027e-17
3798.00490 2.36287e-17
3800.00174 2.36547e-17
3801.99859 2.36807e-17
3803.99544 2.37067e-17
3806.00248 2.37326e-17
3807.99932 2.37586e-17
3809.99617 2.37846e-17
3812.00321 2.38106e-17
3814.00006 2.38366e-17
3815.99690 2.38626e-17
3818.00394 2.38886e-17
3820.00079 2.26766e-17
3821.99764 2.20729e-17
3824.00467 2.34957e-17
3826.00152 2.36637e-17
3827.99837 2.03901e-17
3829.99522 1.57701e-17
3832.00225 2.25647e-17
3833.99910 2.43275e-17
3835.99595 2.22045e-17
3838.00298 1.85562e-17
3839.99983 1.80930e-17
3841.99668 2.65318e-17
3844.00372 2.42115e-17
3846.00056 2.50963e-17
3847.99741 2.18049e-17
3850.00445 2.25391e-17
3852.00130 2.60425e-17
3853.99814 2.20606e-17
3855.99499 2.15161e-17
3858.00203 2.28453e-17
3859.99888 2.05349e-17
3861.99572 1.86344e-17
3864.00276 2.21050e-17
3865.99961 2.61918e-17
3867.99646 2.49787e-17
3870.00349 2.33681e-17
3872.00034 1.97180e-17
3873.99719 2.09101e-17
3876.00422 2.50022e-17
3878.00107 2.27452e-17
3879.99792 2.18543e-17
3881.99477 2.26119e-17
3884.00180 2.25150e-17
3885.99865 2.45061e-17
3887.99550 2.30333e-17
3890.00254 2.48812e-17
3891.99938 2.26710e-17
3893.99623 2.42507e-17
3896.00327 2.37740e-17
3898.00012 2.15411e-17
3899.99696 2.22346e-17
3902.00400 2.27864e-17
3904.00085 2.01677e-17
3905.99770 2.24303e-17
3908.00473 2.24837e-17
3910.00158 2.12774e-17
3911.99843 2.27911e-17
3913.99528 2.42964e-17
3916.00231 2.32650e-17
3917.99916 2.00673e-17
3919.99601 2.28877e-17
3922.00304 2.18949e-17
3923.99989 1.95467e-17
3925.99674 1.85305e-17
3928.00378 2.50377e-17
3930.00062 2.59935e-17
3931.99747 2.37627e-17
3934.00451 2.37705e-17
3936.00136 1.89128e-17
3937.99820 1.89495e-17
3939.99505 2.44641e-17
3942.00209 2.60470e-17
3943.99894 2.56418e-17
3945.99578 2.51024e-17
3948.00282 2.34251e-17
3949.99967 2.33567e-17
3951.99652 2.43529e-17
3954.00355 2.53300e-17
3956.00040 2.56875e-17
3957.99725 2.19626e-17
3960.00428 2.07255e-17
3962.00113 2.53765e-17
3963.99798 2.52441e-17
3965.99483 2.66903e-17
3968.00186 2.64413e-17
3969.99871 2.66811e-17
3971.99556 2.41891e-17
3974.00260 2.54864e-17
3975.99944 2.60407e-17
3977.99629 2.49811e-17
3980.00333 2.48133e-17
3982.00018 2.51095e-17
3983.99702 2.76343e-17
3986.00406 2.77243e-17
3988.00091 2.76506e-17
3989.99776 2.57654e-17
3992.00479 2.51953e-17
3994.00164 2.63599e-17
3995.99849 2.28906e-17
3997.99534 2.33983e-17
4000.00237 2.53826e-17
4001.99922 2.52820e-17
4003.99607 2.46298e-17
4006.00310 2.29603e-17
4007.99995 2.36952e-17
4009.99680 2.53884e-17
4012.00384 2.61183e-17
4014.00068 2.61417e-17
4015.99753 2.51302e-17
4018.00457 2.56541e-17
4020.00142 3.14740e-17
4021.99826 2.84853e-17
4023.99511 2.16206e-17
4026.00215 2.07983e-17
4027.99900 2.56496e-17
4029.99584 2.56867e-17
4032.00288 2.70886e-17
4033.99973 2.63832e-17
4035.99658 2.46993e-17
4038.00361 2.30070e-17
4040.00046 2.19952e-17
4041.99731 2.20328e-17
4044.00434 2.86955e-17
4046.00119 3.09486e-17
4047.99804 2.79992e-17
4049.99489 2.64074e-17
4052.00192 2.62822e-17
4053.99877 3.02229e-17
4055.99562 2.37797e-17
4058.00266 2.13947e-17
4059.99950 2.53517e-17
4061.99635 2.39492e-17
4064.00339 2.36281e-17
4066.00024 2.64688e-17
4067.99708 2.61583e-17
4070.00412 2.24474e-17
4072.00097 2.63499e-17
4073.99782 2.91885e-17
4076.00485 2.49998e-17
4078.00170 2.50367e-17
4079.99855 2.76547e-17
4081.99540 2.67237e-17
4084.00243 2.54652e-17
4085.99928 2.50155e-17
4087.99613 2.47750e-17
4090.00316 2.68809e-17
4092.00001 2.62157e-17
4093.99686 2.55486e-17
4096.00390 2.93536e-17
4098.00074 2.58387e-17
4099.99759 2.48911e-17
4102.00463 2.48377e-17
4104.00148 2.36744e-17
4105.99832 2.57093e-17
4107.99517 2.72308e-17
4110.00221 2.44087e-17
4111.99906 2.25948e-17
4113.99590 2.42453e-17
4116.00294 2.61188e-17
4117.99979 2.25527e-17
4119.99664 2.01864e-17
4122.00367 2.37427e-17
4124.00052 2.33469e-17
4125.99737 2.43655e-17
4128.00440 2.34523e-17
4130.00125 2.49179e-17
4131.99810 2.64959e-17
4133.99495 2.65467e-17
4136.00198 2.58261e-17
4137.99883 2.72348e-17
4139.99568 2.52274e-17
4142.00272 2.49638e-17
4143.99956 2.55782e-17
4145.99641 2.59223e-17
4148.00345 2.68513e-17
4150.00030 2.71919e-17
4151.99714 2.46644e-17
4154.00418 2.56302e-17
4156.00103 2.17052e-17
4157.99788 2.33600e-17
4160.00491 2.41146e-17
4162.00176 2.37039e-17
4163.99861 2.12595e-17
4165.99546 2.43075e-17
4168.00249 2.45455e-17
4169.99934 2.26393e-17
4171.99619 2.55289e-17
4174.00322 2.63802e-17
4176.00007 2.45433e-17
4177.99692 2.50559e-17
4180.00396 2.56459e-17
4182.00080 2.39611e-17
4183.99765 2.15802e-17
4186.00469 2.43385e-17
4188.00154 2.46024e-17
4189.99838 2.37801e-17
4191.99523 2.28674e-17
4194.00227 2.41564e-17
4195.99912 2.29030e-17
4197.99596 2.26735e-17
4200.00300 2.49084e-17
4201.99985 2.38986e-17
4203.99670 2.40233e-17
4206.00373 2.18911e-17
4208.00058 2.42386e-17
4209.99743 2.56324e-17
4212.00446 2.61390e-17
4214.00131 2.54583e-17
4215.99816 2.33541e-17
4218.00520 2.05054e-17
4220.00204 2.06046e-17
4221.99889 2.36956e-17
4223.99574 2.32348e-17
4226.00278 2.38330e-17
4227.99962 2.28918e-17
4229.99647 2.24423e-17
4232.00351 2.09964e-17
4234.00036 2.10814e-17
4235.99720 2.39607e-17
4238.00424 2.35902e-17
4240.00109 2.38244e-17
4241.99794 2.18095e-17
4244.00497 2.15659e-17
4246.00182 2.39622e-17
4247.99867 2.02271e-17
4249.99552 1.77382e-17
4252.00255 2.24729e-17
4253.99940 2.65017e-17
4255.99625 2.63987e-17
4258.00328 2.15351e-17
4260.00013 2.11543e-17
4261.99698 2.40733e-17
4264.00402 2.33445e-17
4266.00086 2.35612e-17
4267.99771 2.19689e-17
4270.00475 1.95796e-17
4272.00160 2.15549e-17
4273.99844 2.27234e-17
4275.99529 1.97385e-17
4278.00233 2.01500e-17
4279.99918 2.07714e-17
4281.99602 1.95514e-17
4284.00306 2.35938e-17
4285.99991 2.38873e-17
4287.99676 2.01581e-17
4290.00379 2.09141e-17
4292.00064 2.24084e-17
4293.99749 2.31772e-17
4296.00452 2.37212e-17
4298.00137 2.18257e-17
4299.99822 2.13305e-17
4301.99507 2.02222e-17
4304.00210 2.06372e-17
4305.99895 2.29748e-17
4307.99580 2.26449e-17
4310.00284 2.13059e-17
4311.99968 2.41013e-17
4313.99653 2.62726e-17
4316.00357 2.55972e-17
4318.00042 2.30380e-17
4319.99726 2.34874e-17
4322.00430 2.00652e-17
4324.00115 2.15047e-17
4325.99800 2.23303e-17
4327.99484 2.25041e-17
4330.00188 2.22285e-17
4331.99873 2.09502e-17
4333.99558 2.22740e-17
4336.00261 2.26333e-17
4337.99946 2.02261e-17
4339.99631 2.19347e-17
4342.00334 2.16084e-17
4344.00019 2.08572e-17
4345.99704 1.90330e-17
4348.00408 2.20188e-17
4350.00092 2.52524e-17
4351.99777 2.98918e-17
4354.00481 2.41054e-17
4356.00166 2.51784e-17
4357.99850 2.57532e-17
4359.99535 2.90910e-17
4362.00239 2.76980e-17
4363.99924 2.56550e-17
4365.99608 2.35069e-17
4368.00312 2.46181e-17
4369.99997 2.89041e-17
4371.99682 2.74051e-17
4374.00385 2.46225e-17
4376.00070 2.46615e-17
4377.99755 2.66693e-17
4380.00458 2.59226e-17
4382.00143 2.47235e-17
4383.99828 2.38267e-17
4385.99513 2.51176e-17
4388.00216 2.81285e-17
4389.99901 2.53173e-17
4391.99586 2.61705e-17
4394.00290 2.35188e-17
4395.99974 2.25000e-17
4397.99659 2.33218e-17
4400.00363 2.66513e-17
4402.00048 2.69376e-17
4403.99732 2.51401e-17
4406.00436 2.78021e-17
4408.00121 2.58486e-17
4409.99806 2.34021e-17
4411.99490 2.79872e-17
4414.00194 2.54603e-17
4415.99879 2.54608e-17
4417.99564 2.54612e-17
4420.00267 2.54616e-17
4421.99952 2.54619e-17
4423.99637 2.54623e-17
4426.00340 2.54627e-17
4428.00025 2.54631e-17
4429.99710 2.54635e-17
4432.00414 2.54639e-17
4434.00098 2.54643e-17
4435.99783 2.54647e-17
4437.99468 2.54651e-17
4440.00172 2.54654e-17
4441.99856 2.54658e-17
4443.99541 2.54662e-17
4446.00245 2.54666e-17
4447.99930 2.54669e-17
4449.99614 2.54673e-17
4452.00318 2.54677e-17
4454.00003 2.54680e-17
4455.99688 2.54684e-17
4458.00391 2.54688e-17
4460.00076 2.54691e-17
4461.99761 2.54695e-17
4464.00464 2.54698e-17
4466.00149 2.54702e-17
4467.99834 2.54705e-17
4469.99519 2.54709e-17
4472.00222 2.54712e-17
4473.99907 2.54716e-17
4475.99592 2.54719e-17
4478.00296 2.71866e-17
4479.99980 2.63596e-17
4481.99665 2.59734e-17
4484.00369 2.43174e-17
4486.00054 2.41248e-17
4487.99738 2.52938e-17
4490.00442 2.49839e-17
4492.00127 2.32998e-17
4493.99812 2.43075e-17
4495.99496 2.53782e-17
4498.00200 2.36239e-17
4499.99885 2.18329e-17
4501.99570 2.47961e-17
4504.00273 2.46878e-17
4505.99958 2.39975e-17
4507.99643 2.53737e-17
4510.00346 2.26684e-17
4512.00031 2.53481e-17
4513.99716 2.64089e-17
4516.00420 2.61371e-17
4518.00104 2.65340e-17
4519.99789 2.49008e-17
4522.00493 2.56141e-17
4524.00178 2.34751e-17
4525.99862 2.13341e-17
4527.99547 2.21294e-17
4530.00251 2.64358e-17
4531.99936 2.47916e-17
4533.99620 2.30014e-17
4536.00324 2.40742e-17
4538.00009 2.57537e-17
4539.99694 2.38989e-17
4542.00397 2.45993e-17
4544.00082 2.53221e-17
4545.99767 2.46901e-17
4548.00470 2.46115e-17
4550.00155 2.45194e-17
4551.99840 2.62264e-17
4553.99525 2.73763e-17
4556.00228 2.70322e-17
4557.99913 2.62096e-17
4559.99598 2.66353e-17
4562.00302 2.54357e-17
4563.99986 2.63211e-17
4565.99671 2.46559e-17
4568.00375 2.46647e-17
4570.00060 2.36793e-17
4571.99744 2.31870e-17
4574.00448 2.47658e-17
4576.00133 2.43928e-17
4577.99818 2.34865e-17
4579.99502 2.32227e-17
4582.00206 2.60601e-17
4583.99891 2.47883e-17
4585.99576 2.21216e-17
4588.00279 2.28592e-17
4589.99964 2.38385e-17
4591.99649 2.46736e-17
4594.00352 2.58318e-17
4596.00037 2.60577e-17
4597.99722 2.66061e-17
4600.00426 2.57706e-17
4602.00110 2.52014e-17
4603.99795 2.52564e-17
4605.99480 2.51950e-17
4608.00184 2.55939e-17
4609.99868 2.45558e-17
4611.99553 2.21740e-17
4614.00257 2.40074e-17
4615.99942 2.56724e-17
4617.99626 2.65591e-17
4620.00330 2.72279e-17
4622.00015 2.41797e-17
4623.99700 2.45627e-17
4626.00403 2.66762e-17
4628.00088 2.47202e-17
4629.99773 2.45195e-17
4632.00476 2.50492e-17
4634.00161 2.48801e-17
4635.99846 2.52339e-17
4637.99531 2.51441e-17
4640.00234 2.62751e-17
4641.99919 2.48529e-17
4643.99604 2.42916e-17
4646.00308 2.62134e-17
4647.99992 2.47338e-17
4649.99677 2.39153e-17
4652.00381 2.40003e-17
4654.00066 2.46575e-17
4655.99750 2.37871e-17
4658.00454 2.30589e-17
4660.00139 2.47257e-17
4661.99824 2.55496e-17
4663.99508 2.57394e-17
4666.00212 2.43612e-17
4667.99897 2.33615e-17
4669.99582 2.36215e-17
4672.00285 2.32629e-17
4673.99970 2.32357e-17
4675.99655 2.35156e-17
4678.00358 2.35010e-17
4680.00043 2.46087e-17
4681.99728 2.26585e-17
4684.00432 2.12739e-17
4686.00116 2.12344e-17
4687.99801 2.40776e-17
4690.00505 2.28580e-17
4692.00190 2.12132e-17
4693.99874 2.44265e-17
4695.99559 2.23275e-17
4698.00263 1.98716e-17
4699.99948 2.07382e-17
4701.99632 2.23019e-17
4704.00336 2.41750e-17
4706.00021 2.50642e-17
4707.99706 2.24406e-17
4710.00409 2.20306e-17
4712.00094 2.30111e-17
4713.99779 2.10842e-17
4716.00482 2.19832e-17
4718.00167 2.11719e-17
4719.99852 2.40086e-17
4721.99537 2.55253e-17
4724.00240 2.16815e-17
4725.99925 2.29151e-17
4727.99610 2.20950e-17
4730.00314 2.07812e-17
4731.99998 2.12422e-17
4733.99683 2.27069e-17
4736.00387 2.53009e-17
4738.00072 2.38845e-17
4739.99756 2.30307e-17
4742.00460 2.25782e-17
4744.00145 2.17138e-17
4745.99830 2.31448e-17
4747.99514 2.39509e-17
4750.00218 2.29006e-17
4751.99903 2.29152e-17
4753.99588 2.25840e-17
4756.00291 2.32303e-17
4757.99976 2.17099e-17
4759.99661 2.09365e-17
4762.00364 2.22616e-17
4764.00049 2.16930e-17
4765.99734 2.19162e-17
4768.00438 2.16589e-17
4770.00122 2.14991e-17
4771.99807 2.20538e-17
4773.99492 2.12344e-17
4776.00196 2.12505e-17
4777.99880 2.22977e-17
4779.99565 2.25915e-17
4782.00269 2.10852e-17
4783.99954 1.92799e-17
4785.99638 2.08410e-17
4788.00342 2.04731e-17
4790.00027 2.04904e-17
4791.99712 2.16375e-17
4794.00415 2.17002e-17
4796.00100 2.05994e-17
4797.99785 2.00872e-17
4800.00488 2.00338e-17
4802.00173 1.93789e-17
4803.99858 2.00080e-17
4805.99543 2.01853e-17
4808.00246 1.94369e-17
4809.99931 1.94752e-17
4811.99616 2.12010e-17
4814.00320 2.10574e-17
4816.00004 2.02197e-17
4817.99689 2.07545e-17
4820.00393 2.06525e-17
4822.00078 2.07233e-17
4823.99762 1.97141e-17
4826.00466 2.20542e-17
4828.00151 2.09091e-17
4829.99836 2.14413e-17
4831.99520 2.15595e-17
4834.00224 2.19093e-17
4835.99909 1.93781e-17
4837.99594 2.51034e-17
4840.00297 2.89778e-17
4841.99982 2.05954e-17
4843.99667 2.03276e-17
4846.00370 2.08189e-17
4848.00055 1.95397e-17
4849.99740 2.05632e-17
4852.00444 2.20801e-17
4854.00128 2.02126e-17
4855.99813 1.79864e-17
4857.99498 2.08444e-17
4860.00202 1.98032e-17
4861.99886 1.81196e-17
4863.99571 2.06003e-17
4866.00275 2.10184e-17
4867.99960 2.03714e-17
4869.99644 2.07837e-17
4872.00348 2.11962e-17
4874.00033 1.99170e-17
4875.99718 2.01563e-17
4878.00421 2.18677e-17
4880.00106 2.17491e-17
4881.99791 2.08073e-17
4884.00494 1.66883e-17
4886.00179 1.79068e-17
4887.99864 1.80313e-17
4889.99549 1.75958e-17
4892.00252 1.91749e-17
4893.99937 2.10456e-17
4895.99622 2.07590e-17
4898.00326 1.90488e-17
4900.00010 1.92732e-17
4901.99695 2.00515e-17
4904.00399 2.09592e-17
4906.00084 2.16129e-17
4907.99768 1.94026e-17
4910.00472 1.86380e-17
4912.00157 2.01966e-17
4913.99842 1.82634e-17
4915.99526 1.60794e-17
4918.00230 1.85493e-17
4919.99915 1.84360e-17
4921.99600 1.87189e-17
4924.00303 1.87020e-17
4925.99988 2.00560e-17
4927.99673 1.87746e-17
4930.00376 1.81983e-17
4932.00061 1.87061e-17
4933.99746 1.98026e-17
4936.00450 1.98768e-17
4938.00134 1.99509e-17
4939.99819 2.00251e-17
4941.99504 2.00992e-17
4944.00208 2.01734e-17
4945.99892 2.02475e-17
4947.99577 2.03216e-17
4950.00281 2.03957e-17
4951.99966 2.04698e-17
4953.99650 2.05439e-17
4956.00354 2.06180e-17
4958.00039 2.06921e-17
4959.99724 2.07661e-17
4962.00427 2.08401e-17
4964.00112 2.09142e-17
4965.99797 2.09882e-17
4968.00500 2.10622e-17
4970.00185 2.11362e-17
4971.99870 2.12102e-17
4973.99555 1.83344e-17
4976.00258 2.31737e-17
4977.99943 1.99416e-17
4979.99628 1.82689e-17
4982.00332 2.09332e-17
4984.00016 2.10413e-17
4985.99701 2.08088e-17
4988.00405 2.07223e-17
4990.00090 2.23350e-17
4991.99774 2.22419e-17
4994.00478 2.03119e-17
4996.00163 2.02553e-17
4997.99848 2.19364e-17
4999.99532 2.11876e-17
5002.00236 1.96811e-17
5003.99921 1.99512e-17
5005.99606 2.03558e-17
5008.00309 1.81479e-17
5009.99994 1.90049e-17
5011.99679 2.01602e-17
5014.00382 2.00786e-17
5016.00067 2.04536e-17
5017.99752 2.10900e-17
5020.00456 2.06421e-17
5022.00140 2.21333e-17
5023.99825 2.22766e-17
5025.99510 1.99125e-17
5028.00214 2.01047e-17
5029.99898 2.15095e-17
5031.99583 2.14497e-17
5034.00287 2.14413e-17
5035.99972 2.14329e-17
5037.99656 2.14245e-17
5040.00360 2.14161e-17
5042.00045 2.14077e-17
5043.99730 2.13993e-17
5046.00433 2.13909e-17
5048.00118 2.13826e-17
5049.99803 2.13742e-17
5051.99488 2.13658e-17
5054.00191 2.13574e-17
5055.99876 2.13491e-17
5057.99561 2.13407e-17
5060.00264 2.13323e-17
5061.99949 2.13239e-17
5063.99634 2.13156e-17
5066.00338 2.13072e-17
5068.00022 2.12989e-17
5069.99707 2.12905e-17
5072.00411 2.12822e-17
5074.00096 2.17038e-17
5075.99780 2.27298e-17
5077.99465 2.16712e-17
5080.00169 2.29912e-17
5081.99854 2.31110e-17
5083.99538 2.31276e-17
5086.00242 2.31442e-17
5087.99927 2.31607e-17
5089.99612 2.31773e-17
5092.00315 2.31939e-17
5094.00000 2.32105e-17
5095.99685 2.32271e-17
5098.00388 2.32437e-17
5100.00073 2.32602e-17
5101.99758 2.32768e-17
5104.00462 2.32934e-17
5106.00146 2.33099e-17
5107.99831 2.33265e-17
5109.99516 2.33431e-17
5112.00220 2.33597e-17
5113.99904 2.33762e-17
5115.99589 2.33928e-17
5118.00293 2.34094e-17
5119.99978 2.34259e-17
5121.99662 2.19861e-17
5124.00366 2.00371e-17
5126.00051 2.06155e-17
5127.99736 2.11323e-17
5130.00439 2.05607e-17
5132.00124 2.19523e-17
5133.99809 2.27153e-17
5136.00512 2.10517e-17
5138.00197 2.09816e-17
5139.99882 2.05323e-17
5141.99567 2.15055e-17
5144.00270 2.13713e-17
5145.99955 1.94651e-17
5147.99640 2.13050e-17
5150.00344 2.21334e-17
5152.00028 2.30217e-17
5153.99713 2.37993e-17
5156.00417 2.18093e-17
5158.00102 2.06700e-17
5159.99786 2.24268e-17
5162.00490 2.14131e-17
5164.00175 2.22881e-17
5165.99860 2.27181e-17
5167.99544 2.32081e-17
5170.00248 2.31092e-17
5171.99933 2.33826e-17
5173.99618 2.23594e-17
5176.00321 2.10344e-17
5178.00006 2.10464e-17
5179.99691 2.13343e-17
5182.00394 2.15728e-17
5184.00079 2.06149e-17
5185.99764 1.76028e-17
5188.00468 2.09328e-17
5190.00152 2.13241e-17
5191.99837 2.31500e-17
5193.99522 2.38832e-17
5196.00226 2.33640e-17
5197.99910 2.29090e-17
5199.99595 2.12026e-17
5202.00299 2.16138e-17
5203.99984 2.34272e-17
5205.99668 2.11623e-17
5208.00372 2.06588e-17
5210.00057 2.17512e-17
5211.99742 2.17005e-17
5214.00445 2.12396e-17
5216.00130 2.39315e-17
5217.99815 2.22006e-17
5219.99500 1.84356e-17
5222.00203 1.98276e-17
5223.99888 2.03464e-17
5225.99573 1.98835e-17
5228.00276 2.05943e-17
5229.99961 2.09589e-17
5231.99646 2.11232e-17
5234.00350 2.17843e-17
5236.00034 2.08002e-17
5237.99719 2.11215e-17
5240.00423 2.15042e-17
5242.00108 2.04191e-17
5243.99792 2.03561e-17
5245.99477 2.09663e-17
5248.00181 2.01861e-17
5249.99866 1.96048e-17
5251.99550 1.99748e-17
5254.00254 2.10829e-17
5255.99939 2.11302e-17
5257.99624 2.03559e-17
5260.00327 2.05864e-17
5262.00012 1.93331e-17
5263.99697 1.91462e-17
5266.00400 2.06106e-17
5268.00085 2.10340e-17
5269.99770 2.06467e-17
5272.00474 2.07972e-17
5274.00158 1.94018e-17
5275.99843 1.97288e-17
5277.99528 2.02924e-17
5280.00232 1.93026e-17
5281.99916 1.84014e-17
5283.99601 1.90858e-17
5286.00305 1.88635e-17
5287.99990 1.86535e-17
5289.99674 1.97300e-17
5292.00378 1.96280e-17
5294.00063 1.89903e-17
5295.99748 1.83662e-17
5298.00451 1.78899e-17
5300.00136 1.86051e-17
5301.99821 1.94938e-17
5303.99506 1.94463e-17
5306.00209 1.93072e-17
5307.99894 1.94455e-17
5309.99579 2.09636e-17
5312.00282 2.01937e-17
5313.99967 1.98168e-17
5315.99652 2.04134e-17
5318.00356 1.92037e-17
5320.00040 1.86365e-17
5321.99725 1.89145e-17
5324.00429 1.85392e-17
5326.00114 1.89179e-17
5327.99798 1.85996e-17
5330.00502 1.88586e-17
5332.00187 1.99673e-17
5333.99872 2.02834e-17
5335.99556 1.90189e-17
5338.00260 1.89051e-17
5339.99945 1.94988e-17
5341.99630 1.86796e-17
5344.00333 1.83875e-17
5346.00018 1.71824e-17
5347.99703 1.81653e-17
5350.00406 1.85081e-17
5352.00091 1.66388e-17
5353.99776 1.87643e-17
5356.00480 1.96016e-17
5358.00164 1.80329e-17
5359.99849 1.92846e-17
5361.99534 1.92655e-17
5364.00238 1.96813e-17
5365.99922 2.05074e-17
5367.99607 1.94898e-17
5370.00311 1.90513e-17
5371.99996 1.85100e-17
5373.99680 1.95611e-17
5376.00384 1.98832e-17
5378.00069 1.93915e-17
5379.99754 1.87256e-17
5382.00457 1.89391e-17
5384.00142 1.99732e-17
5385.99827 1.98457e-17
5387.99512 1.85664e-17
5390.00215 1.78646e-17
5391.99900 1.78975e-17
5393.99585 1.81317e-17
5396.00288 1.80489e-17
5397.99973 1.78387e-17
5399.99658 1.79168e-17
5402.00362 1.84962e-17
5404.00046 1.85143e-17
5405.99731 1.78287e-17
5408.00435 1.71317e-17
5410.00120 1.68281e-17
5411.99804 1.67111e-17
5413.99489 1.67716e-17
5416.00193 1.71958e-17
5417.99878 1.74154e-17
5419.99562 1.76541e-17
5422.00266 1.76039e-17
5423.99951 1.69691e-17
5425.99636 1.60653e-17
5428.00339 1.64115e-17
5430.00024 1.84643e-17
5431.99709 1.88717e-17
5434.00412 1.79996e-17
5436.00097 1.74017e-17
5437.99782 1.75756e-17
5440.00486 1.79747e-17
5442.00170 1.79220e-17
5443.99855 1.76341e-17
5445.99540 1.72813e-17
5448.00244 1.65471e-17
5449.99928 1.61275e-17
5451.99613 1.62348e-17
5454.00317 1.64929e-17
5456.00002 1.64075e-17
5457.99686 1.60055e-17
5460.00390 1.64034e-17
5462.00075 1.78528e-17
5463.99760 1.84553e-17
5466.00463 1.81225e-17
5468.00148 1.75100e-17
5469.99833 1.70755e-17
5471.99518 1.65420e-17
5474.00221 1.64887e-17
5475.99906 1.70415e-17
5477.99591 1.72282e-17
5480.00294 1.71338e-17
5481.99979 1.69754e-17
5483.99664 1.68572e-17
5486.00368 1.68020e-17
5488.00052 1.67969e-17
5489.99737 1.69362e-17
5492.00441 1.67600e-17
5494.00126 1.62246e-17
5495.99810 1.58444e-17
5497.99495 1.58844e-17
5500.00199 1.61559e-17
5501.99884 1.63965e-17
5503.99568 1.66994e-17
5506.00272 1.71062e-17
5507.99957 1.78347e-17
5509.99642 1.82105e-17
5512.00345 1.79974e-17
5514.00030 1.75388e-17
5515.99715 1.71736e-17
5518.00418 1.67389e-17
5520.00103 1.64076e-17
5521.99788 1.58924e-17
5523.99473 1.59990e-17
5526.00176 1.72286e-17
5527.99861 1.84360e-17
5529.99546 1.82466e-17
5532.00250 1.71210e-17
5533.99934 1.67103e-17
5535.99619 1.64401e-17
5538.00323 1.63840e-17
5540.00008 1.66256e-17
5541.99692 1.69483e-17
5544.00396 1.71406e-17
5546.00081 1.73203e-17
5547.99766 1.71928e-17
5550.00469 1.66536e-17
5552.00154 1.63191e-17
5553.99839 1.60234e-17
5555.99524 1.58324e-17
5558.00227 1.58228e-17
5559.99912 1.59557e-17
5561.99597 1.58391e-17
5564.00300 1.53445e-17
5565.99985 1.52184e-17
5567.99670 1.54572e-17
5570.00374 1.55144e-17
5572.00058 1.52808e-17
5573.99743 1.48875e-17
5576.00447 1.48235e-17
5578.00132 1.51404e-17
5579.99816 1.52322e-17
5581.99501 1.53777e-17
5584.00205 1.54965e-17
5585.99890 1.55666e-17
5587.99574 1.55809e-17
5590.00278 1.57964e-17
5591.99963 1.61574e-17
5593.99648 1.61975e-17
5596.00351 1.60386e-17
5598.00036 1.59279e-17
5599.99721 1.56996e-17
5602.00424 1.55380e-17
5604.00109 1.56974e-17
5605.99794 1.61085e-17
5608.00498 1.61188e-17
5610.00182 1.57623e-17
5611.99867 1.55294e-17
5613.99552 1.51618e-17
5616.00256 1.50254e-17
5617.99940 1.54444e-17
5619.99625 1.61693e-17
5622.00329 1.62928e-17
5624.00014 1.60246e-17
5625.99698 1.57987e-17
5628.00402 1.54029e-17
5630.00087 1.51165e-17
5631.99772 1.49606e-17
5634.00475 1.49676e-17
5636.00160 1.52764e-17
5637.99845 1.61943e-17
5639.99530 1.62833e-17
5642.00233 1.57853e-17
5643.99918 1.52464e-17
5645.99603 1.45067e-17
5648.00306 1.38958e-17
5649.99991 1.41689e-17
5651.99676 1.53914e-17
5654.00380 1.55194e-17
5656.00064 1.48591e-17
5657.99749 1.45171e-17
5660.00453 1.43336e-17
5662.00138 1.43978e-17
5663.99822 1.50348e-17
5665.99507 1.62343e-17
5668.00211 1.61579e-17
5669.99896 1.46007e-17
5671.99580 1.41213e-17
5674.00284 1.46190e-17
5675.99969 1.52491e-17
5677.99654 1.55861e-17
5680.00357 1.58676e-17
5682.00042 1.56597e-17
5683.99727 1.45230e-17
5686.00430 1.43838e-17
5688.00115 1.50770e-17
5689.99800 1.58035e-17
5691.99485 1.64751e-17
5694.00188 1.70475e-17
5695.99873 1.67761e-17
5697.99558 1.54539e-17
5700.00262 1.49748e-17
5701.99946 1.47074e-17
5703.99631 1.47592e-17
5706.00335 1.53493e-17
5708.00020 1.60734e-17
5709.99704 1.62331e-17
5712.00408 1.60467e-17
5714.00093 1.58499e-17
5715.99778 1.53101e-17
5718.00481 1.51392e-17
5720.00166 1.54711e-17
5721.99851 1.59085e-17
5723.99536 1.59769e-17
5726.00239 1.57762e-17
5727.99924 1.59449e-17
5729.99609 1.65165e-17
5732.00312 1.65965e-17
5733.99997 1.59090e-17
5735.99682 1.53435e-17
5738.00386 1.56659e-17
5740.00070 1.65505e-17
5741.99755 1.63579e-17
5744.00459 1.49051e-17
5746.00144 1.46123e-17
5747.99828 1.55059e-17
5749.99513 1.61089e-17
5752.00217 1.57066e-17
5753.99902 1.47970e-17
5755.99586 1.41802e-17
5758.00290 1.30851e-17
5759.99975 1.31666e-17
5761.99660 1.45742e-17
5764.00363 1.56581e-17
5766.00048 1.60784e-17
5767.99733 1.61683e-17
5770.00436 1.59819e-17
5772.00121 1.52039e-17
5773.99806 1.49106e-17
5776.00510 1.48399e-17
5778.00194 1.46971e-17
5779.99879 1.45818e-17
5781.99564 1.44737e-17
5784.00268 1.44498e-17
5785.99952 1.44468e-17
5787.99637 1.46097e-17
5790.00341 1.51120e-17
5792.00026 1.53649e-17
5793.99710 1.53966e-17
5796.00414 1.53159e-17
5798.00099 1.51446e-17
5799.99784 1.48661e-17
5802.00487 1.47362e-17
5804.00172 1.45984e-17
5805.99857 1.47028e-17
5807.99542 1.51798e-17
5810.00245 1.55996e-17
5811.99930 1.56454e-17
5813.99615 1.54943e-17
5816.00318 1.55816e-17
5818.00003 1.58686e-17
5819.99688 1.59937e-17
5822.00392 1.62264e-17
5824.00076 1.62560e-17
5825.99761 1.58287e-17
5828.00465 1.52002e-17
5830.00150 1.50193e-17
5831.99834 1.48504e-17
5833.99519 1.53821e-17
5836.00223 1.70456e-17
5837.99908 1.78212e-17
5839.99592 1.72728e-17
5842.00296 1.61984e-17
5843.99981 1.53609e-17
5845.99666 1.41422e-17
5848.00369 1.38702e-17
5850.00054 1.44909e-17
5851.99739 1.49293e-17
5854.00442 1.53089e-17
5856.00127 1.55510e-17
5857.99812 1.54185e-17
5859.99497 1.49319e-17
5862.00200 1.47486e-17
5863.99885 1.46021e-17
5865.99570 1.46858e-17
5868.00274 1.52311e-17
5869.99958 1.56190e-17
5871.99643 1.54304e-17
5874.00347 1.48632e-17
5876.00032 1.45048e-17
5877.99716 1.38609e-17
5880.00420 1.37859e-17
5882.00105 1.44072e-17
5883.99790 1.49772e-17
5886.00493 1.51081e-17
5888.00178 1.50745e-17
5889.99863 1.52471e-17
5891.99548 1.55582e-17
5894.00251 1.60818e-17
5895.99936 1.73386e-17
5897.99621 1.77233e-17
5900.00324 1.62864e-17
5902.00009 1.41550e-17
5903.99694 1.35944e-17
5906.00398 1.39768e-17
5908.00082 1.41880e-17
5909.99767 1.47834e-17
5912.00471 1.51190e-17
5914.00156 1.51868e-17
5915.99840 1.50915e-17
5917.99525 1.49884e-17
5920.00229 1.47949e-17
5921.99914 1.45806e-17
5923.99598 1.42179e-17
5926.00302 1.38955e-17
5927.99987 1.34578e-17
5929.99672 1.31856e-17
5932.00375 1.34535e-17
5934.00060 1.41294e-17
5935.99745 1.43535e-17
5938.00448 1.41922e-17
5940.00133 1.42806e-17
5941.99818 1.47284e-17
5943.99503 1.49184e-17
5946.00206 1.44281e-17
5947.99891 1.35300e-17
5949.99576 1.31800e-17
5952.00280 1.31171e-17
5953.99964 1.31484e-17
5955.99649 1.31705e-17
5958.00353 1.31927e-17
5960.00038 1.32148e-17
5961.99722 1.32369e-17
5964.00426 1.32591e-17
5966.00111 1.32812e-17
5967.99796 1.33033e-17
5969.99480 1.33255e-17
5972.00184 1.33476e-17
5973.99869 1.33697e-17
5975.99554 1.33919e-17
5978.00257 1.34140e-17
5979.99942 1.34361e-17
5981.99627 1.34582e-17
5984.00330 1.34804e-17
5986.00015 1.35025e-17
5987.99700 1.35246e-17
5990.00404 1.35467e-17
5992.00088 1.35689e-17
5993.99773 1.35910e-17
5995.99458 1.36131e-17
5998.00162 1.36352e-17
5999.99846 1.36573e-17
6001.99531 1.36794e-17
6004.00235 1.37015e-17
6005.99920 1.37237e-17
6007.99604 1.37458e-17
6010.00308 1.37679e-17
6011.99993 1.37900e-17
6013.99678 1.38121e-17
6016.00381 1.38342e-17
6018.00066 1.38563e-17
6019.99751 1.35477e-17
6022.00454 1.29988e-17
6024.00139 1.28358e-17
6025.99824 1.27822e-17
6027.99509 1.29118e-17
6030.00212 1.34111e-17
6031.99897 1.36850e-17
6033.99582 1.36070e-17
6036.00286 1.33499e-17
6037.99970 1.32657e-17
6039.99655 1.32556e-17
6042.00359 1.31028e-17
6044.00044 1.28743e-17
6045.99728 1.26372e-17
6048.00432 1.22081e-17
6050.00117 1.19787e-17
6051.99802 1.24722e-17
6054.00505 1.36806e-17
6056.00190 1.38509e-17
6057.99875 1.32924e-17
6059.99560 1.28814e-17
6062.00263 1.24354e-17
6063.99948 1.21196e-17
6065.99633 1.22011e-17
6068.00336 1.25526e-17
6070.00021 1.27345e-17
6071.99706 1.28289e-17
6074.00410 1.28998e-17
6076.00094 1.28832e-17
6077.99779 1.29260e-17
6080.00483 1.31038e-17
6082.00168 1.33316e-17
6083.99852 1.33790e-17
6085.99537 1.32165e-17
6088.00241 1.31789e-17
6089.99926 1.34309e-17
6091.99610 1.34126e-17
6094.00314 1.28181e-17
6095.99999 1.20020e-17
6097.99684 1.17395e-17
6100.00387 1.18250e-17
6102.00072 1.19048e-17
6103.99757 1.21392e-17
6106.00460 1.23064e-17
6108.00145 1.24533e-17
6109.99830 1.25375e-17
6111.99515 1.23734e-17
6114.00218 1.19354e-17
6115.99903 1.17856e-17
6117.99588 1.17359e-17
6120.00292 1.18826e-17
6121.99976 1.24495e-17
6123.99661 1.29524e-17
6126.00365 1.27844e-17
6128.00050 1.21438e-17
6129.99734 1.20852e-17
6132.00438 1.24487e-17
6134.00123 1.24871e-17
6135.99808 1.21975e-17
6137.99492 1.18919e-17
6140.00196 1.17720e-17
6141.99881 1.16973e-17
6143.99566 1.16672e-17
6146.00269 1.17530e-17
6147.99954 1.17399e-17
6149.99639 1.15930e-17
6152.00342 1.14864e-17
6154.00027 1.15409e-17
6155.99712 1.16617e-17
6158.00416 1.16553e-17
6160.00100 1.15940e-17
6161.99785 1.15429e-17
6163.99470 1.14727e-17
6166.00174 1.14309e-17
6167.99858 1.13736e-17
6169.99543 1.13582e-17
6172.00247 1.14118e-17
6173.99932 1.14755e-17
6175.99616 1.16828e-17
6178.00320 1.21747e-17
6180.00005 1.23799e-17
6181.99690 1.22167e-17
6184.00393 1.20147e-17
6186.00078 1.20915e-17
6187.99763 1.23949e-17
6190.00466 1.21611e-17
6192.00151 1.12002e-17
6193.99836 1.08645e-17
6195.99521 1.10910e-17
6198.00224 1.14610e-17
6199.99909 1.17343e-17
6201.99594 1.20719e-17
6204.00298 1.21903e-17
6205.99982 1.20253e-17
6207.99667 1.20043e-17
6210.00371 1.20731e-17
6212.00056 1.20907e-17
6213.99740 1.19450e-17
6216.00444 1.17137e-17
6218.00129 1.16540e-17
6219.99814 1.18583e-17
6221.99498 1.16408e-17
6224.00202 1.08883e-17
6225.99887 1.04906e-17
6227.99572 1.07898e-17
6230.00275 1.13675e-17
6231.99960 1.15824e-17
6233.99645 1.16885e-17
6236.00348 1.17601e-17
6238.00033 1.17073e-17
6239.99718 1.16637e-17
6242.00422 1.16589e-17
6244.00106 1.16256e-17
6245.99791 1.15891e-17
6248.00495 1.15806e-17
6250.00180 1.16480e-17
6251.99864 1.17839e-17
6253.99549 1.18430e-17
6256.00253 1.18690e-17
6257.99938 1.18349e-17
6259.99622 1.17167e-17
6262.00326 1.14936e-17
6264.00011 1.14955e-17
6265.99696 1.18510e-17
6268.00399 1.19062e-17
6270.00084 1.16614e-17
6271.99769 1.14150e-17
6274.00472 1.14022e-17
6276.00157 1.14936e-17
6277.99842 1.14840e-17
6279.99527 1.13578e-17
6282.00230 1.13962e-17
6283.99915 1.15530e-17
6285.99600 1.17629e-17
6288.00304 1.20721e-17
6289.99988 1.23446e-17
6291.99673 1.22230e-17
6294.00377 1.16111e-17
6296.00062 1.14425e-17
6297.99746 1.15415e-17
6300.00450 1.16190e-17
6302.00135 1.14522e-17
6303.99820 1.12580e-17
6305.99504 1.16283e-17
6308.00208 1.26092e-17
6309.99893 1.27321e-17
6311.99578 1.21031e-17
6314.00281 1.17715e-17
6315.99966 1.16679e-17
6317.99651 1.15643e-17
6320.00354 1.14727e-17
6322.00039 1.13871e-17
6323.99724 1.12636e-17
6326.00428 1.10775e-17
6328.00112 1.09889e-17
6329.99797 1.09418e-17
6331.99482 1.09781e-17
6334.00186 1.12733e-17
6335.99870 1.17798e-17
6337.99555 1.18267e-17
6340.00259 1.13790e-17
6341.99944 1.12217e-17
6343.99628 1.12378e-17
6346.00332 1.13077e-17
6348.00017 1.12757e-17
6349.99702 1.12321e-17
6352.00405 1.12764e-17
6354.00090 1.13549e-17
6355.99775 1.14805e-17
6358.00478 1.15896e-17
6360.00163 1.19031e-17
6361.99848 1.26288e-17
6363.99533 1.34180e-17
6366.00236 1.33874e-17
6367.99921 1.26992e-17
6369.99606 1.23572e-17
6372.00310 1.19691e-17
6373.99994 1.16980e-17
6375.99679 1.15882e-17
6378.00383 1.15164e-17
6380.00068 1.13471e-17
6381.99752 1.11186e-17
6384.00456 1.11140e-17
6386.00141 1.13473e-17
6387.99826 1.14809e-17
6389.99510 1.16249e-17
6392.00214 1.17323e-17
6393.99899 1.17392e-17
6395.99584 1.17090e-17
6398.00287 1.16908e-17
6399.99972 1.15582e-17
6401.99657 1.15646e-17
6404.00360 1.17534e-17
6406.00045 1.19148e-17
6407.99730 1.18970e-17
6410.00434 1.17957e-17
6412.00118 1.17379e-17
6413.99803 1.15314e-17
6415.99488 1.16133e-17
6418.00192 1.20298e-17
6419.99876 1.23273e-17
6421.99561 1.23874e-17
6424.00265 1.23390e-17
6425.99950 1.23487e-17
6427.99634 1.23749e-17
6430.00338 1.23315e-17
6432.00023 1.22082e-17
6433.99708 1.21096e-17
6436.00411 1.20455e-17
6438.00096 1.19985e-17
6439.99781 1.19657e-17
6441.99466 1.19571e-17
6444.00169 1.19239e-17
6445.99854 1.18860e-17
6447.99539 1.18273e-17
6450.00242 1.17532e-17
6451.99927 1.16545e-17
6453.99612 1.14373e-17
6456.00316 1.10333e-17
6458.00000 1.09613e-17
6459.99685 1.11429e-17
6462.00389 1.13261e-17
6464.00074 1.16329e-17
6465.99758 1.19083e-17
6468.00462 1.20470e-17
6470.00147 1.20722e-17
6471.99832 1.22431e-17
6473.99516 1.25404e-17
6476.00220 1.25964e-17
6477.99905 1.25080e-17
6479.99590 1.23596e-17
6482.00293 1.21662e-17
6483.99978 1.19530e-17
6485.99663 1.20281e-17
6488.00366 1.24707e-17
6490.00051 1.25742e-17
6491.99736 1.25037e-17
6494.00440 1.23867e-17
6496.00124 1.21938e-17
6497.99809 1.19951e-17
6499.99494 1.19656e-17
6502.00198 1.20697e-17
6503.99882 1.20729e-17
6505.99567 1.21113e-17
6508.00271 1.20741e-17
6509.99956 1.19846e-17
6511.99640 1.18511e-17
6514.00344 1.17204e-17
6516.00029 1.15516e-17
6517.99714 1.15348e-17
6520.00417 1.15909e-17
6522.00102 1.17111e-17
6523.99787 1.19407e-17
6526.00490 1.21531e-17
6528.00175 1.23420e-17
6529.99860 1.24927e-17
6531.99545 1.24154e-17
6534.00248 1.20036e-17
6535.99933 1.17651e-17
6537.99618 1.16352e-17
6540.00322 1.15551e-17
6542.00006 1.15600e-17
6543.99691 1.15925e-17
6546.00395 1.14858e-17
6548.00080 1.12537e-17
6549.99764 1.12042e-17
6552.00468 1.12769e-17
6554.00153 1.13322e-17
6555.99838 1.13024e-17
6557.99522 1.12528e-17
6560.00226 1.14296e-17
6561.99911 1.18226e-17
6563.99596 1.20238e-17
6566.00299 1.22566e-17
6567.99984 1.23250e-17
6569.99669 1.20911e-17
6572.00372 1.17517e-17
6574.00057 1.16413e-17
6575.99742 1.15909e-17
6578.00446 1.16341e-17
6580.00130 1.19130e-17
6581.99815 1.19852e-17
6583.99500 1.17692e-17
6586.00204 1.15457e-17
6587.99888 1.15111e-17
6589.99573 1.15975e-17
6592.00277 1.15257e-17
6593.99962 1.13536e-17
6595.99646 1.12327e-17
6598.00350 1.11187e-17
6600.00035 1.10820e-17
6601.99720 1.12412e-17
6604.00423 1.15405e-17
6606.00108 1.14723e-17
6607.99793 1.09151e-17
6609.99478 1.08092e-17
6612.00181 1.10686e-17
6613.99866 1.12618e-17
6615.99551 1.12996e-17
6618.00254 1.13022e-17
6619.99939 1.14107e-17
6621.99624 1.16126e-17
6624.00328 1.16835e-17
6626.00012 1.17217e-17
6627.99697 1.16306e-17
6630.00401 1.13347e-17
6632.00086 1.09764e-17
6633.99770 1.08001e-17
6636.00474 1.06297e-17
6638.00159 1.09218e-17
6639.99844 1.19879e-17
6641.99528 1.24671e-17
6644.00232 1.22096e-17
6645.99917 1.17397e-17
6647.99602 1.14763e-17
6650.00305 1.12391e-17
6651.99990 1.11610e-17
6653.99675 1.11501e-17
6656.00378 1.11392e-17
6658.00063 1.11283e-17
6659.99748 1.11173e-17
6662.00452 1.11064e-17
6664.00136 1.10955e-17
6665.99821 1.10846e-17
6667.99506 1.10737e-17
6670.00210 1.10628e-17
6671.99894 1.10519e-17
6673.99579 1.10410e-17
6676.00283 1.10301e-17
6677.99968 1.10192e-17
6679.99652 1.10083e-17
6682.00356 1.09974e-17
6684.00041 1.09865e-17
6685.99726 1.09756e-17
6688.00429 1.09647e-17
6690.00114 1.09538e-17
6691.99799 1.09318e-17
6694.00502 1.09097e-17
6696.00187 1.08877e-17
6697.99872 1.08656e-17
6699.99557 1.08436e-17
6702.00260 1.08216e-17
6703.99945 1.07995e-17
6705.99630 1.07775e-17
6708.00334 1.07555e-17
6710.00018 1.07335e-17
6711.99703 1.07114e-17
6714.00407 1.06894e-17
6716.00092 1.06674e-17
6717.99776 1.06454e-17
6720.00480 1.06233e-17
6722.00165 1.06013e-17
6723.99850 1.05793e-17
6725.99534 1.05573e-17
6728.00238 1.05112e-17
6729.99923 1.05944e-17
6731.99608 1.08740e-17
6734.00311 1.10845e-17
6735.99996 1.11407e-17
6737.99681 1.10928e-17
6740.00384 1.08889e-17
6742.00069 1.02742e-17
6743.99754 1.01089e-17
6746.00458 1.02932e-17
6748.00142 1.04915e-17
6749.99827 1.05890e-17
6751.99512 1.06595e-17
6754.00216 1.07333e-17
6755.99900 1.08437e-17
6757.99585 1.08836e-17
6760.00289 1.08469e-17
6761.99974 1.06971e-17
6763.99658 1.03178e-17
6766.00362 9.89835e-18
6768.00047 9.83600e-18
6769.99732 1.00287e-17
6772.00435 1.01966e-17
6774.00120 1.05164e-17
6775.99805 1.06547e-17
6777.99490 1.05588e-17
6780.00193 1.03862e-17
6781.99878 1.03468e-17
6783.99563 1.03894e-17
6786.00266 1.02721e-17
6787.99951 9.92489e-18
6789.99636 9.77423e-18
6792.00340 9.81538e-18
6794.00024 9.96691e-18
6795.99709 1.02371e-17
6798.00413 1.06265e-17
6800.00098 1.06214e-17
6801.99782 1.00874e-17
6804.00486 1.00485e-17
6806.00171 1.04651e-17
6807.99856 1.07726e-17
6809.99540 1.07172e-17
6812.00244 1.04941e-17
6813.99929 1.03931e-17
6815.99614 1.03356e-17
6818.00317 1.02214e-17
6820.00002 1.00557e-17
6821.99687 9.89754e-18
6824.00390 9.70894e-18
6826.00075 9.69242e-18
6827.99760 9.67591e-18
6830.00464 9.65939e-18
6832.00148 9.64288e-18
6833.99833 9.62637e-18
6835.99518 9.60986e-18
6838.00222 9.59335e-18
6839.99906 9.59064e-18
6841.99591 9.58792e-18
6844.00295 9.58521e-18
6845.99980 9.58249e-18
6847.99664 9.57978e-18
6850.00368 9.57706e-18
6852.00053 9.57435e-18
6853.99738 9.57163e-18
6856.00441 9.56892e-18
6858.00126 9.56620e-18
6859.99811 9.56349e-18
6862.00514 9.56078e-18
6864.00199 9.55806e-18
6865.99884 9.55535e-18
6867.99569 9.55264e-18
6870.00272 9.54992e-18
6871.99957 9.54721e-18
6873.99642 9.54450e-18
6876.00346 9.54178e-18
6878.00030 9.32309e-18
6879.99715 9.17063e-18
6882.00419 9.07604e-18
6884.00104 9.05873e-18
6885.99788 9.12184e-18
6888.00492 9.21396e-18
6890.00177 9.42536e-18
6891.99862 9.49801e-18
6893.99546 9.40010e-18
6896.00250 9.43139e-18
6897.99935 9.78006e-18
6899.99620 1.00737e-17
6902.00323 9.77760e-18
6904.00008 8.92646e-18
6905.99693 8.73917e-18
6908.00396 9.03287e-18
6910.00081 9.15535e-18
6911.99766 9.09424e-18
6914.00470 8.98710e-18
6916.00154 9.03083e-18
6917.99839 9.17206e-18
6919.99524 9.22496e-18
6922.00228 9.21769e-18
6923.99912 9.16796e-18
6925.99597 9.03359e-18
6928.00301 8.94208e-18
6929.99986 8.98955e-18
6931.99670 9.10348e-18
6934.00374 9.10124e-18
6936.00059 8.92308e-18
6937.99744 8.84907e-18
6940.00447 8.85919e-18
6942.00132 8.93413e-18
6943.99817 9.22464e-18
6945.99502 9.58917e-18
6948.00205 9.40914e-18
6949.99890 8.57848e-18
6951.99575 8.43172e-18
6954.00278 8.80358e-18
6955.99963 9.03972e-18
6957.99648 9.02826e-18
6960.00352 8.95764e-18
6962.00036 8.82451e-18
6963.99721 8.59729e-18
6966.00425 8.56426e-18
6968.00110 8.59194e-18
6969.99794 8.76160e-18
6972.00498 9.25438e-18
6974.00183 9.69167e-18
6975.99868 9.57578e-18
6977.99552 9.04924e-18
6980.00256 8.83935e-18
6981.99941 8.72220e-18
6983.99626 8.63759e-18
6986.00329 8.61871e-18
6988.00014 8.65970e-18
6989.99699 8.78872e-18
6992.00402 8.97317e-18
6994.00087 8.92331e-18
6995.99772 8.65645e-18
6998.00476 8.48580e-18
7000.00160 8.30144e-18
7001.99845 8.22362e-18
7003.99530 8.35418e-18
7006.00234 8.60842e-18
7007.99918 8.81975e-18
7009.99603 9.09663e-18
7012.00307 9.23267e-18
7013.99992 9.27018e-18
7015.99676 9.25092e-18
7018.00380 9.19524e-18
7020.00065 9.10567e-18
7021.99750 9.03738e-18
7024.00453 8.98174e-18
7026.00138 8.90721e-18
7027.99823 8.77279e-18
7029.99508 8.64191e-18
7032.00211 8.51733e-18
7033.99896 8.44792e-18
7035.99581 8.54981e-18
7038.00284 8.85235e-18
7039.99969 8.94092e-18
7041.99654 8.95184e-18
7044.00358 8.96969e-18
7046.00042 8.96362e-18
7047.99727 8.93461e-18
7050.00431 8.79363e-18
7052.00116 8.62507e-18
7053.99800 8.59117e-18
7055.99485 8.73261e-18
7058.00189 8.77966e-18
7059.99874 8.69993e-18
7061.99558 8.64063e-18
7064.00262 8.72548e-18
7065.99947 8.89061e-18
7067.99632 8.94382e-18
7070.00335 8.97379e-18
7072.00020 8.95077e-18
7073.99705 8.83864e-18
7076.00408 8.77683e-18
7078.00093 8.76712e-18
7079.99778 8.82456e-18
7081.99463 8.87378e-18
7084.00166 8.92600e-18
7085.99851 8.99174e-18
7087.99536 9.10303e-18
7090.00240 9.19013e-18
7091.99924 9.26240e-18
7093.99609 9.28904e-18
7096.00313 9.24831e-18
7097.99998 9.07200e-18
7099.99682 9.03257e-18
7102.00386 9.16129e-18
7104.00071 9.13286e-18
7105.99756 8.89182e-18
7108.00459 8.62787e-18
7110.00144 8.52567e-18
7111.99829 8.51420e-18
7113.99514 8.49585e-18
7116.00217 8.52346e-18
7117.99902 8.53126e-18
7119.99587 8.48978e-18
7122.00290 8.56392e-18
7123.99975 8.82232e-18
7125.99660 9.23990e-18
7128.00364 9.27723e-18
7130.00048 8.90283e-18
7131.99733 8.72464e-18
7134.00437 8.63436e-18
7136.00122 8.59833e-18
7137.99806 8.62611e-18
7139.99491 8.70329e-18
7142.00195 8.86109e-18
7143.99880 9.31023e-18
7145.99564 9.24717e-18
7148.00268 8.72150e-18
7149.99953 8.30728e-18
7151.99638 8.10322e-18
7154.00341 8.02159e-18
7156.00026 8.08894e-18
7157.99711 8.36494e-18
7160.00414 8.54281e-18
7162.00099 8.79571e-18
7163.99784 8.91611e-18
7166.00488 8.77083e-18
7168.00172 8.56865e-18
7169.99857 8.64294e-18
7171.99542 8.91500e-18
7174.00246 8.86812e-18
7175.99930 8.46661e-18
7177.99615 8.42415e-18
7180.00319 8.84057e-18
7182.00004 9.22159e-18
7183.99688 9.25765e-18
7186.00392 9.11937e-18
7188.00077 9.02301e-18
7189.99762 8.74033e-18
7192.00465 8.77681e-18
7194.00150 9.12704e-18
7195.99835 9.43920e-18
7197.99520 9.56324e-18
7200.00223 9.57802e-18
7201.99908 9.42045e-18
7203.99593 8.86596e-18
7206.00296 8.65576e-18
7207.99981 8.66661e-18
7209.99666 8.65264e-18
7212.00370 8.54489e-18
7214.00054 8.41354e-18
7215.99739 8.32347e-18
7218.00443 8.23185e-18
7220.00128 8.21778e-18
7221.99812 8.43652e-18
7223.99497 8.43675e-18
7226.00201 8.17584e-18
7227.99886 7.68032e-18
7229.99570 6.71941e-18
7232.00274 4.92957e-18
7233.99959 5.04843e-18
7235.99644 7.05981e-18
7238.00347 8.33239e-18
7240.00032 9.00095e-18
7241.99717 9.32130e-18
7244.00420 9.25333e-18
7246.00105 8.76878e-18
7247.99790 8.57794e-18
7249.99475 8.44082e-18
7252.00178 8.36592e-18
7253.99863 8.39815e-18
7255.99548 8.39414e-18
7258.00252 8.26871e-18
7259.99936 8.08970e-18
7261.99621 8.17404e-18
7264.00325 8.53214e-18
7266.00010 8.66834e-18
7267.99694 8.69633e-18
7270.00398 8.67555e-18
7272.00083 8.62238e-18
7273.99768 8.51621e-18
7276.00471 8.32591e-18
7278.00156 7.91689e-18
7279.99841 7.81972e-18
7281.99526 7.96592e-18
7284.00229 8.10173e-18
7285.99914 8.18586e-18
7287.99599 8.25546e-18
7290.00302 8.34739e-18
7291.99987 8.46296e-18
7293.99672 8.42887e-18
7296.00376 8.24585e-18
7298.00060 8.17811e-18
7299.99745 8.30430e-18
7302.00449 8.43271e-18
7304.00134 8.33282e-18
7305.99818 8.09205e-18
7307.99503 7.77552e-18
7310.00207 7.21792e-18
7311.99892 6.92759e-18
7313.99576 6.88461e-18
7316.00280 6.96420e-18
7317.99965 7.10178e-18
7319.99650 7.29674e-18
7322.00353 7.49431e-18
7324.00038 7.74990e-18
7325.99723 7.91250e-18
7328.00426 8.10150e-18
7330.00111 8.13358e-18
7331.99796 7.78692e-18
7334.00500 7.25463e-18
7336.00184 7.47105e-18
7337.99869 8.76537e-18
7339.99554 8.87303e-18
7342.00258 8.05213e-18
7343.99942 7.39728e-18
7345.99627 7.14930e-18
7348.00331 7.04054e-18
7350.00016 6.90838e-18
7351.99700 6.84052e-18
7354.00404 6.77168e-18
7356.00089 6.67176e-18
7357.99774 6.70793e-18
7360.00477 6.79607e-18
7362.00162 6.99626e-18
7363.99847 7.41169e-18
7365.99532 8.08045e-18
7368.00235 8.30251e-18
7369.99920 8.34975e-18
7371.99605 8.17775e-18
7374.00308 7.46351e-18
7375.99993 6.79047e-18
7377.99678 6.73549e-18
7380.00382 7.04871e-18
7382.00066 7.26802e-18
7383.99751 7.73157e-18
7386.00455 7.85688e-18
7388.00140 7.69417e-18
7389.99824 7.40150e-18
7391.99509 6.95945e-18
7394.00213 6.39447e-18
7395.99898 6.33106e-18
7397.99582 6.73939e-18
7400.00286 6.94638e-18
7401.99971 7.18086e-18
7403.99656 7.31427e-18
7406.00359 7.33359e-18
7408.00044 7.27272e-18
7409.99729 7.22524e-18
7412.00432 7.20474e-18
7414.00117 7.05919e-18
7415.99802 6.72354e-18
7417.99487 6.54236e-18
7420.00190 6.68026e-18
7421.99875 6.91655e-18
7423.99560 6.91737e-18
7426.00264 6.73440e-18
7427.99948 6.71202e-18
7429.99633 6.72884e-18
7432.00337 6.76844e-18
7434.00022 6.83347e-18
7435.99706 6.91740e-18
7438.00410 7.09196e-18
7440.00095 7.37391e-18
7441.99780 7.34184e-18
7444.00483 6.96753e-18
7446.00168 6.81151e-18
7447.99853 6.81095e-18
7449.99538 6.86344e-18
7452.00241 6.93243e-18
7453.99926 7.03845e-18
7455.99611 7.00257e-18
7458.00314 6.74735e-18
7459.99999 6.72721e-18
7461.99684 6.93390e-18
7464.00388 7.10899e-18
7466.00072 7.16232e-18
7467.99757 7.14999e-18
7470.00461 7.05223e-18
7472.00146 6.72856e-18
7473.99830 6.68535e-18
7475.99515 6.88350e-18
7478.00219 7.02300e-18
7479.99904 6.95446e-18
7481.99588 6.85735e-18
7484.00292 6.92789e-18
7485.99977 7.25866e-18
7487.99662 7.12620e-18
7490.00365 6.52574e-18
7492.00050 6.19773e-18
7493.99735 6.23696e-18
7496.00438 6.43366e-18
7498.00123 6.53510e-18
7499.99808 6.66400e-18
7501.99493 6.74962e-18
7504.00196 6.79290e-18
7505.99881 6.81673e-18
7507.99566 6.83175e-18
7510.00270 6.85727e-18
7511.99954 6.92453e-18
7513.99639 7.05100e-18
7516.00343 7.04865e-18
7518.00028 6.88536e-18
7519.99712 6.78603e-18
7522.00416 6.73113e-18
7524.00101 6.69296e-18
7525.99786 6.69061e-18
7527.99470 6.71522e-18
7530.00174 6.66786e-18
7531.99859 6.48817e-18
7533.99544 6.45235e-18
7536.00247 6.54018e-18
7537.99932 6.60908e-18
7539.99617 6.61598e-18
7542.00320 6.61416e-18
7544.00005 6.62965e-18
7545.99690 6.70088e-18
7548.00394 6.63384e-18
7550.00078 6.39072e-18
7551.99763 6.24052e-18
7554.00467 6.16571e-18
7556.00152 6.17888e-18
7557.99836 6.35119e-18
7559.99521 6.77699e-18
7562.00225 6.81261e-18
7563.99910 6.47562e-18
7565.99594 6.29203e-18
7568.00298 6.29042e-18
7569.99983 6.31723e-18
7571.99668 6.19473e-18
7574.00371 5.98231e-18
7576.00056 5.99380e-18
7577.99741 6.33322e-18
7580.00444 6.36875e-18
7582.00129 6.03027e-18
7583.99814 5.74667e-18
7585.99499 5.77952e-18
7588.00202 6.02172e-18
7589.99887 6.15163e-18
7591.99572 6.26376e-18
7594.00276 6.36082e-18
7595.99960 6.34651e-18
7597.99645 6.41588e-18
7600.00349 6.74181e-18
7602.00034 7.16026e-18
7603.99718 7.11039e-18
7606.00422 6.56617e-18
7608.00107 6.35866e-18
7609.99792 6.27710e-18
7612.00495 6.27895e-18
7614.00180 6.38500e-18
7615.99865 6.53122e-18
7617.99550 6.61649e-18
7620.00253 6.50946e-18
7621.99938 6.81321e-18
7623.99623 7.81269e-18
7626.00326 8.16544e-18
7628.00011 7.64124e-18
7629.99696 6.88034e-18
7632.00400 6.52411e-18
7634.00084 6.30429e-18
7635.99769 6.09736e-18
7638.00473 5.86082e-18
7640.00158 5.85851e-18
7641.99842 6.19873e-18
7643.99527 6.54902e-18
7646.00231 6.59735e-18
7647.99916 6.49622e-18
7649.99600 6.41010e-18
7652.00304 6.13792e-18
7653.99989 6.05748e-18
7655.99674 6.14141e-18
7658.00377 6.27354e-18
7660.00062 6.43626e-18
7661.99747 6.64358e-18
7664.00450 6.66204e-18
7666.00135 6.54024e-18
7667.99820 6.38855e-18
7669.99505 6.15396e-18
7672.00208 5.93424e-18
7673.99893 5.73155e-18
7675.99578 5.57340e-18
7678.00282 5.54720e-18
7679.99966 5.66697e-18
7681.99651 5.87675e-18
7684.00355 6.26285e-18
7686.00040 6.56645e-18
7687.99724 6.79873e-18
7690.00428 6.95562e-18
7692.00113 6.93946e-18
7693.99798 6.72337e-18
7695.99482 6.65298e-18
7698.00186 6.66517e-18
7699.99871 6.64984e-18
7701.99556 6.64539e-18
7704.00259 6.59731e-18
7705.99944 6.40535e-18
7707.99629 6.07052e-18
7710.00332 6.16191e-18
7712.00017 6.79679e-18
7713.99702 6.96366e-18
7716.00406 6.68987e-18
7718.00090 6.41510e-18
7719.99775 6.30146e-18
7722.00479 6.23649e-18
7724.00164 6.33300e-18
7725.99848 6.71930e-18
7727.99533 6.81874e-18
7730.00237 6.70607e-18
7731.99922 6.58705e-18
7733.99606 6.43939e-18
7736.00310 6.32404e-18
7737.99995 6.40553e-18
7739.99680 6.71440e-18
7742.00383 6.92489e-18
7744.00068 7.26839e-18
7745.99753 7.34350e-18
7748.00456 7.01402e-18
7750.00141 6.52270e-18
7751.99826 6.26450e-18
7753.99511 6.03442e-18
7756.00214 6.11865e-18
7757.99899 6.72325e-18
7759.99584 7.02917e-18
7762.00288 7.04645e-18
7763.99972 6.89441e-18
7765.99657 6.52346e-18
7768.00361 5.84184e-18
7770.00046 5.70230e-18
7771.99730 5.95947e-18
7774.00434 6.16274e-18
7776.00119 6.46531e-18
7777.99804 6.68448e-18
7780.00507 6.71355e-18
7782.00192 6.58798e-18
7783.99877 6.49317e-18
7785.99562 6.27339e-18
7788.00265 6.19959e-18
7789.99950 6.25855e-18
7791.99635 6.37364e-18
7794.00338 6.57918e-18
7796.00023 6.83928e-18
7797.99708 6.84540e-18
7800.00412 6.47044e-18
7802.00096 6.43654e-18
7803.99781 6.64803e-18
7806.00485 6.77610e-18
7808.00170 6.76302e-18
7809.99854 6.64397e-18
7811.99539 6.57175e-18
7814.00243 6.40412e-18
7815.99928 6.56951e-18
7817.99612 7.16296e-18
7820.00316 7.49057e-18
7822.00001 7.52908e-18
7823.99686 7.39798e-18
7826.00389 7.03860e-18
7828.00074 6.33479e-18
7829.99759 6.10473e-18
7832.00462 6.15375e-18
7834.00147 6.30433e-18
7835.99832 6.73205e-18
7837.99517 7.08015e-18
7840.00220 6.97937e-18
7841.99905 6.55874e-18
7843.99590 6.27948e-18
7846.00294 5.87798e-18
7847.99978 5.72837e-18
7849.99663 5.71152e-18
7852.00367 5.90675e-18
7854.00052 6.42882e-18
7855.99736 7.11561e-18
7858.00440 7.35142e-18
7860.00125 7.33677e-18
7861.99810 7.13944e-18
7863.99494 6.58083e-18
7866.00198 6.12056e-18
7867.99883 5.89749e-18
7869.99568 5.80550e-18
7872.00271 5.78523e-18
7873.99956 5.97274e-18
7875.99641 6.01951e-18
7878.00344 5.99048e-18
7880.00029 6.02047e-18
7881.99714 6.10292e-18
7884.00418 6.17826e-18
7886.00102 6.24237e-18
7887.99787 6.24126e-18
7889.99472 6.31516e-18
7892.00176 6.50971e-18
7893.99860 6.60452e-18
7895.99545 6.68347e-18
7898.00249 6.68344e-18
7899.99934 6.46794e-18
7901.99618 6.03294e-18
7904.00322 5.81157e-18
7906.00007 5.67078e-18
7907.99692 5.71017e-18
7910.00395 5.98042e-18
7912.00080 6.25385e-18
7913.99765 6.43918e-18
7916.00468 6.58766e-18
7918.00153 6.51819e-18
7919.99838 6.13301e-18
7921.99523 6.02870e-18
7924.00226 6.02408e-18
7925.99911 6.19416e-18
7927.99596 6.66639e-18
7930.00300 7.28426e-18
7931.99984 7.34081e-18
7933.99669 6.87088e-18
7936.00373 6.60188e-18
7938.00058 6.15084e-18
7939.99742 5.94528e-18
7942.00446 6.16322e-18
7944.00131 6.54535e-18
7945.99816 6.65690e-18
7947.99500 6.67527e-18
7950.00204 6.63698e-18
7951.99889 6.43977e-18
7953.99574 6.38981e-18
7956.00277 6.65334e-18
7957.99962 6.88669e-18
7959.99647 6.66819e-18
7962.00350 6.09192e-18
7964.00035 5.96654e-18
7965.99720 6.12090e-18
7968.00424 6.19125e-18
7970.00108 6.23110e-18
7971.99793 6.28955e-18
7973.99478 6.34009e-18
7976.00182 6.39762e-18
7977.99866 6.35799e-18
7979.99551 6.15617e-18
7982.00255 6.07039e-18
7983.99940 6.00752e-18
7985.99624 6.05446e-18
7988.00328 6.38813e-18
7990.00013 6.88367e-18
7991.99698 6.88342e-18
7994.00401 6.44754e-18
7996.00086 6.17382e-18
7997.99771 5.76704e-18
8000.00474 5.55699e-18
8002.00159 5.73557e-18
8003.99844 6.08076e-18
8005.99529 6.28748e-18
8008.00232 6.58389e-18
8009.99917 6.65114e-18
8011.99602 6.53833e-18
8014.00306 6.34151e-18
8015.99990 6.05244e-18
8017.99675 5.71789e-18
8020.00379 5.44505e-18
8022.00064 5.06558e-18
8023.99748 5.18782e-18
8026.00452 6.01396e-18
8028.00137 6.38732e-18
8029.99822 6.13238e-18
8031.99506 5.81745e-18
8034.00210 5.93271e-18
8035.99895 6.27063e-18
8037.99580 6.31163e-18
8040.00283 6.10569e-18
8041.99968 6.03322e-18
8043.99653 6.08261e-18
8046.00356 6.15546e-18
8048.00041 6.18412e-18
8049.99726 6.21270e-18
8052.00430 6.31180e-18
8054.00114 6.60368e-18
8055.99799 6.63819e-18
8057.99484 6.41711e-18
8060.00188 6.23736e-18
8061.99872 6.17750e-18
8063.99557 6.15608e-18
8066.00261 6.14664e-18
8067.99946 6.21312e-18
8069.99630 6.23858e-18
8072.00334 6.20572e-18
8074.00019 6.25335e-18
8075.99704 6.54886e-18
8078.00407 6.86258e-18
8080.00092 6.69633e-18
8081.99777 6.06405e-18
8084.00480 5.87454e-18
8086.00165 5.96761e-18
8087.99850 6.00495e-18
8089.99535 5.98899e-18
8092.00238 5.96223e-18
8093.99923 5.86405e-18
8095.99608 5.68863e-18
8098.00312 5.67820e-18
8099.99996 5.80507e-18
8101.99681 5.92088e-18
8104.00385 6.07149e-18
8106.00070 6.21397e-18
8107.99754 6.28678e-18
8110.00458 6.32321e-18
8112.00143 6.40202e-18
8113.99828 6.62968e-18
8115.99512 6.60761e-18
8118.00216 6.30145e-18
8119.99901 6.02363e-18
8121.99586 5.96610e-18
8124.00289 5.98423e-18
8125.99974 5.78032e-18
8127.99659 5.22064e-18
8130.00362 5.15623e-18
8132.00047 5.49583e-18
8133.99732 5.78938e-18
8136.00436 5.94589e-18
8138.00120 6.06991e-18
8139.99805 6.23117e-18
8141.99490 6.42228e-18
8144.00194 6.45460e-18
8145.99878 6.27920e-18
8147.99563 6.22928e-18
8150.00267 6.36903e-18
8151.99952 6.56376e-18
8153.99636 6.62833e-18
8156.00340 6.63972e-18
8158.00025 6.61812e-18
8159.99710 6.56615e-18
8162.00413 6.39555e-18
8164.00098 5.90941e-18
8165.99783 5.56400e-18
8167.99468 5.89286e-18
8170.00171 6.72321e-18
8171.99856 6.96851e-18
8173.99541 6.88534e-18
8176.00244 6.87676e-18
8177.99929 6.88531e-18
8179.99614 6.84910e-18
8182.00318 6.72982e-18
8184.00002 6.51679e-18
8185.99687 6.23875e-18
8188.00391 5.65667e-18
8190.00076 5.54457e-18
8191.99760 5.85594e-18
8194.00464 6.20020e-18
8196.00149 6.53092e-18
8197.99834 6.84237e-18
8199.99518 6.69136e-18
8202.00222 5.92216e-18
8203.99907 5.76358e-18
8205.99592 6.01198e-18
8208.00295 6.17416e-18
8209.99980 6.23202e-18
8211.99665 6.21763e-18
8214.00368 6.06174e-18
8216.00053 5.72504e-18
8217.99738 5.70743e-18
8220.00442 5.94832e-18
8222.00126 6.18332e-18
8223.99811 6.45555e-18
8225.99496 6.70259e-18
8228.00200 6.87113e-18
8229.99884 7.02710e-18
8231.99569 6.94860e-18
8234.00273 6.64914e-18
8235.99958 6.42746e-18
8237.99642 6.16608e-18
8240.00346 5.99350e-18
8242.00031 6.01986e-18
8243.99716 6.19688e-18
8246.00419 6.20276e-18
8248.00104 6.15509e-18
8249.99789 6.22100e-18
8252.00492 6.30468e-18
8254.00177 6.40823e-18
8255.99862 6.68008e-18
8257.99547 6.90807e-18
8260.00250 6.76191e-18
8261.99935 6.47164e-18
8263.99620 6.23277e-18
8266.00324 6.02854e-18
8268.00008 5.92039e-18
8269.99693 5.92788e-18
8272.00397 6.02518e-18
8274.00082 6.18521e-18
8275.99766 6.47853e-18
8278.00470 6.63554e-18
8280.00155 6.82230e-18
8281.99840 6.79646e-18
8283.99524 6.43917e-18
8286.00228 6.01013e-18
8287.99913 5.81651e-18
8289.99598 5.72119e-18
8292.00301 5.75760e-18
8293.99986 6.02952e-18
8295.99671 6.18420e-18
8298.00374 6.20059e-18
8300.00059 6.23515e-18
8301.99744 6.42689e-18
8304.00448 6.72524e-18
8306.00132 6.82153e-18
8307.99817 6.77099e-18
8309.99502 6.73228e-18
8312.00206 6.63788e-18
8313.99890 6.57290e-18
8315.99575 6.63266e-18
8318.00279 6.74514e-18
8319.99964 6.58120e-18
8321.99648 5.99878e-18
8324.00352 5.86750e-18
8326.00037 6.05300e-18
8327.99722 6.26287e-18
8330.00425 6.45736e-18
8332.00110 6.64870e-18
8333.99795 6.70982e-18
8335.99480 6.72042e-18
8338.00183 6.55595e-18
8339.99868 6.00856e-18
8341.99553 5.78321e-18
8344.00256 5.98759e-18
8345.99941 6.42068e-18
8347.99626 6.96560e-18
8350.00330 7.87709e-18
8352.00014 8.00073e-18
8353.99699 7.39803e-18
8356.00403 6.98846e-18
8358.00088 6.73915e-18
8359.99772 6.52588e-18
8362.00476 6.28645e-18
8364.00161 6.02947e-18
8365.99846 5.96676e-18
8367.99530 6.04187e-18
8370.00234 6.21097e-18
8371.99919 6.58607e-18
8373.99604 6.91463e-18
8376.00307 7.05542e-18
8377.99992 7.08368e-18
8379.99677 6.92662e-18
8382.00380 6.41224e-18
8384.00065 6.19073e-18
8385.99750 6.09389e-18
8388.00454 6.13195e-18
8390.00138 6.33874e-18
8391.99823 6.67573e-18
8393.99508 7.01284e-18
8396.00212 7.55014e-18
8397.99896 7.73885e-18
8399.99581 7.74561e-18
8402.00285 7.56374e-18
8403.99970 7.07086e-18
8405.99654 6.47804e-18
8408.00358 6.23082e-18
8410.00043 6.20806e-18
8411.99728 6.13993e-18
8414.00431 6.11903e-18
8416.00116 6.12005e-18
8417.99801 6.08173e-18
8419.99486 6.13387e-18
8422.00189 6.47499e-18
8423.99874 7.09695e-18
8425.99559 7.39689e-18
8428.00262 7.68498e-18
8429.99947 7.60790e-18
8431.99632 6.96322e-18
8434.00336 6.34571e-18
8436.00020 6.20824e-18
8437.99705 6.33514e-18
8440.00409 6.45312e-18
8442.00094 6.82947e-18
8443.99778 6.90089e-18
8446.00482 6.61786e-18
8448.00167 6.42926e-18
8449.99852 6.61034e-18
8451.99536 6.95652e-18
8454.00240 6.92938e-18
8455.99925 6.50147e-18
8457.99610 6.42113e-18
8460.00313 6.50754e-18
8461.99998 6.66278e-18
8463.99683 6.97663e-18
8466.00386 7.29567e-18
8468.00071 7.14052e-18
8469.99756 6.45570e-18
8472.00460 6.24985e-18
8474.00144 6.29451e-18
8475.99829 6.35678e-18
8477.99514 6.47498e-18
8480.00218 6.58247e-18
8481.99902 6.51529e-18
8483.99587 6.28569e-18
8486.00291 6.23676e-18
8487.99976 6.29178e-18
8489.99660 6.35058e-18
8492.00364 6.38598e-18
8494.00049 6.48388e-18
8495.99734 6.76196e-18
8498.00437 7.20288e-18
8500.00122 7.31958e-18
8501.99807 7.19290e-18
8504.00510 7.08441e-18
8506.00195 6.89794e-18
8507.99880 6.74495e-18
8509.99565 6.73218e-18
8512.00268 6.79396e-18
8513.99953 6.65234e-18
8515.99638 6.19404e-18
8518.00342 6.11983e-18
8520.00026 6.40047e-18
8521.99711 6.62145e-18
8524.00415 6.65115e-18
8526.00100 6.59446e-18
8527.99784 6.52055e-18
8529.99469 6.43205e-18
8532.00173 6.22137e-18
8533.99858 5.67180e-18
8535.99542 5.48849e-18
8538.00246 5.92942e-18
8539.99931 6.56516e-18
8541.99616 6.76651e-18
8544.00319 6.71172e-18
8546.00004 6.78903e-18
8547.99689 6.90523e-18
8550.00392 6.97486e-18
8552.00077 7.01021e-18
8553.99762 6.99897e-18
8556.00466 6.91213e-18
8558.00150 6.75426e-18
8559.99835 6.59814e-18
8561.99520 6.25558e-18
8564.00224 6.24037e-18
8565.99908 6.67947e-18
8567.99593 7.07301e-18
8570.00297 7.09509e-18
8571.99982 6.91149e-18
8573.99666 6.59838e-18
8576.00370 5.84776e-18
8578.00055 5.57867e-18
8579.99740 5.66317e-18
8582.00443 5.86961e-18
8584.00128 6.17114e-18
8585.99813 6.55910e-18
8587.99498 6.74080e-18
8590.00201 6.75028e-18
8591.99886 6.83767e-18
8593.99571 6.98930e-18
8596.00274 7.03822e-18
8597.99959 6.92548e-18
8599.99644 6.72770e-18
8602.00348 6.55531e-18
8604.00032 6.33504e-18
8605.99717 6.19935e-18
8608.00421 6.11735e-18
8610.00106 6.05992e-18
8611.99790 6.01990e-18
8613.99475 6.01365e-18
8616.00179 6.07376e-18
8617.99864 6.22119e-18
8619.99548 6.22469e-18
8622.00252 6.07181e-18
8623.99937 6.02914e-18
8625.99622 6.08068e-18
8628.00325 6.18492e-18
8630.00010 6.31199e-18
8631.99695 6.46943e-18
8634.00398 6.76926e-18
8636.00083 7.38952e-18
8637.99768 7.63816e-18
8640.00472 7.67116e-18
8642.00156 7.45793e-18
8643.99841 6.82169e-18
8645.99526 5.90498e-18
8648.00230 5.66609e-18
8649.99914 5.90084e-18
8651.99599 6.15092e-18
8654.00303 6.77353e-18
8655.99988 7.14644e-18
8657.99672 7.06087e-18
8660.00376 6.71289e-18
8662.00061 6.30413e-18
8663.99746 5.45887e-18
8665.99430 5.35269e-18
8668.00134 5.90380e-18
8669.99819 6.32650e-18
8671.99504 6.60040e-18
8674.00207 6.75179e-18
8675.99892 6.62176e-18
8677.99577 6.20276e-18
8680.00280 5.89140e-18
8681.99965 5.43056e-18
8683.99650 5.21666e-18
8686.00354 5.23333e-18
8688.00038 5.43710e-18
8689.99723 5.89040e-18
8692.00427 6.64651e-18
8694.00112 6.88844e-18
8695.99796 6.75515e-18
8698.00500 6.66038e-18
8700.00185 6.51180e-18
8701.99870 6.35602e-18
8703.99554 6.24481e-18
8706.00258 6.15093e-18
8707.99943 5.99902e-18
8709.99628 5.67443e-18
8712.00331 5.63990e-18
8714.00016 5.86137e-18
8715.99701 6.12707e-18
8718.00404 6.43566e-18
8720.00089 6.75019e-18
8721.99774 6.71388e-18
8724.00478 6.30174e-18
8726.00162 6.07255e-18
8727.99847 5.76299e-18
8729.99532 5.64274e-18
8732.00236 5.84053e-18
8733.99920 6.16132e-18
8735.99605 6.28261e-18
8738.00309 6.35752e-18
8739.99994 6.26924e-18
8741.99678 5.90733e-18
8744.00382 5.70449e-18
8746.00067 5.60924e-18
8747.99752 5.68050e-18
8750.00455 6.11100e-18
8752.00140 6.93278e-18
8753.99825 7.29536e-18
8755.99510 7.40333e-18
8758.00213 7.47768e-18
8759.99898 7.42185e-18
8761.99583 7.38621e-18
8764.00286 7.57875e-18
8765.99971 7.92919e-18
8767.99656 7.70358e-18
8770.00360 6.85376e-18
8772.00044 6.34269e-18
8773.99729 5.92409e-18
8776.00433 5.68477e-18
8778.00118 5.70894e-18
8779.99802 5.93427e-18
8782.00506 6.16886e-18
8784.00191 6.71532e-18
8785.99876 6.78836e-18
8787.99560 6.37595e-18
8790.00264 6.12159e-18
8791.99949 6.24914e-18
8793.99634 6.51268e-18
8796.00337 6.56569e-18
8798.00022 6.57290e-18
8799.99707 6.40471e-18
8802.00410 5.95952e-18
8804.00095 5.64480e-18
8805.99780 5.44976e-18
8807.99465 5.38694e-18
8810.00168 5.59387e-18
8811.99853 6.12576e-18
8813.99538 6.32043e-18
8816.00242 6.20630e-18
8817.99926 6.33734e-18
8819.99611 6.74316e-18
8822.00315 7.22623e-18
8824.00000 7.71518e-18
8825.99684 8.30696e-18
8828.00388 8.24437e-18
8830.00073 7.48277e-18
8831.99758 6.96579e-18
8834.00461 6.43252e-18
8836.00146 6.08297e-18
8837.99831 6.10087e-18
8840.00534 6.38010e-18
8842.00219 6.58515e-18
8843.99904 7.08860e-18
8845.99589 7.04806e-18
8848.00292 6.42632e-18
8849.99977 5.90186e-18
8851.99662 5.71384e-18
8854.00366 5.66923e-18
8856.00050 5.57986e-18
8857.99735 5.35699e-18
8860.00439 5.59027e-18
8862.00124 6.41286e-18
8863.99808 6.94939e-18
8865.99493 7.00029e-18
8868.00197 6.86695e-18
8869.99882 6.87285e-18
8871.99566 6.85346e-18
8874.00270 6.97898e-18
8875.99955 7.34039e-18
8877.99640 7.50856e-18
8880.00343 7.52052e-18
8882.00028 7.36094e-18
8883.99713 6.89445e-18
8886.00416 6.07353e-18
8888.00101 5.78486e-18
8889.99786 5.69444e-18
8892.00490 5.93912e-18
8894.00174 6.86786e-18
8895.99859 7.60667e-18
8897.99544 7.46241e-18
8900.00248 6.76721e-18
8901.99932 6.27268e-18
8903.99617 5.53788e-18
8906.00321 5.15709e-18
8908.00006 4.97231e-18
8909.99690 5.03466e-18
8912.00394 5.50207e-18
8914.00079 6.21537e-18
8915.99764 6.43282e-18
8918.00467 6.43132e-18
8920.00152 6.18714e-18
8921.99837 5.37566e-18
8923.99522 4.90958e-18
8926.00225 5.07096e-18
8927.99910 5.52307e-18
8929.99595 5.84119e-18
8932.00298 6.30222e-18
8933.99983 6.42394e-18
8935.99668 6.15987e-18
8938.00372 6.07760e-18
8940.00056 6.29242e-18
8941.99741 6.54453e-18
8944.00445 6.54650e-18
8946.00130 6.38329e-18
8947.99814 6.29250e-18
8949.99499 6.26351e-18
8952.00203 6.09540e-18
8953.99888 5.75277e-18
8955.99572 5.37141e-18
8958.00276 4.99770e-18
8959.99961 4.57144e-18
8961.99646 4.65660e-18
8964.00349 5.43280e-18
8966.00034 5.71864e-18
8967.99719 5.61705e-18
8970.00422 5.46861e-18
8972.00107 5.40967e-18
8973.99792 5.36583e-18
8976.00496 5.41776e-18
8978.00180 5.52803e-18
8979.99865 5.72579e-18
8981.99550 6.06384e-18
8984.00254 6.37952e-18
8985.99938 6.67839e-18
8987.99623 6.92436e-18
8990.00327 6.88721e-18
8992.00012 6.56498e-18
8993.99696 6.30197e-18
8996.00400 5.81110e-18
8998.00085 5.61341e-18
8999.99770 5.84821e-18
9001.99454 6.27391e-18
9004.00158 6.60465e-18
9005.99843 7.00514e-18
9007.99528 7.22144e-18
9010.00231 7.23984e-18
9011.99916 7.34158e-18
9013.99601 7.63059e-18
9016.00304 7.83151e-18
9017.99989 7.62238e-18
9019.99674 7.07489e-18
9022.00378 6.88882e-18
9024.00062 6.96453e-18
9025.99747 6.89000e-18
9028.00451 6.72272e-18
9030.00136 6.49436e-18
9031.99820 6.13612e-18
9033.99505 5.67897e-18
9036.00209 5.70101e-18
9037.99894 6.37482e-18
9039.99578 6.47792e-18
9042.00282 6.17545e-18
9043.99967 5.81499e-18
9045.99652 5.44191e-18
9048.00355 5.06300e-18
9050.00040 5.04686e-18
9051.99725 5.42464e-18
9054.00428 5.61041e-18
9056.00113 5.71189e-18
9057.99798 5.91462e-18
9059.99483 6.34854e-18
9062.00186 6.81435e-18
9063.99871 6.92663e-18
9065.99556 6.78165e-18
9068.00260 6.63499e-18
9069.99944 6.22634e-18
9071.99629 6.08806e-18
9074.00333 6.38840e-18
9076.00018 6.73607e-18
9077.99702 6.67607e-18
9080.00406 6.35662e-18
9082.00091 6.11999e-18
9083.99776 5.73926e-18
9085.99460 5.57274e-18
9088.00164 5.71508e-18
9089.99849 5.83465e-18
9091.99534 5.60881e-18
9094.00237 5.15814e-18
9095.99922 5.22637e-18
9097.99607 5.75666e-18
9100.00310 6.11878e-18
9101.99995 6.60354e-18
9103.99680 6.82000e-18
9106.00384 6.46326e-18
9108.00068 5.75220e-18
9109.99753 5.39824e-18
9112.00457 5.05812e-18
9114.00142 5.02767e-18
9115.99826 5.39141e-18
9117.99511 5.69421e-18
9120.00215 5.80601e-18
9121.99900 5.85025e-18
9123.99584 5.93492e-18
9126.00288 6.03788e-18
9127.99973 6.08154e-18
9129.99658 6.03059e-18
9132.00361 6.05463e-18
9134.00046 6.26505e-18
9135.99731 6.44937e-18
9138.00434 6.27120e-18
9140.00119 5.77044e-18
9141.99804 5.51674e-18
9143.99489 5.19919e-18
9146.00192 5.21091e-18
9147.99877 5.70466e-18
9149.99562 6.25669e-18
9152.00266 6.49082e-18
9153.99950 6.58277e-18
9155.99635 6.51380e-18
9158.00339 6.16037e-18
9160.00024 5.93325e-18
9161.99708 5.74695e-18
9164.00412 5.62454e-18
9166.00097 5.58708e-18
9167.99782 5.62341e-18
9170.00485 5.75964e-18
9172.00170 6.05541e-18
9173.99855 6.28376e-18
9175.99540 6.59537e-18
9178.00243 6.74599e-18
9179.99928 6.59986e-18
9181.99613 6.28533e-18
9184.00316 6.08483e-18
9186.00001 5.81614e-18
9187.99686 5.76106e-18
9190.00390 6.00747e-18
9192.00074 6.07111e-18
9193.99759 5.78460e-18
9196.00463 5.40588e-18
9198.00148 5.31480e-18
9199.99832 5.41067e-18
9201.99517 5.44411e-18
9204.00221 5.46681e-18
9205.99906 5.55639e-18
9207.99590 5.72770e-18
9210.00294 5.93955e-18
9211.99979 6.19336e-18
9213.99664 6.55898e-18
9216.00367 6.48116e-18
9218.00052 5.74719e-18
9219.99737 5.58118e-18
9222.00440 6.07163e-18
9224.00125 6.57370e-18
9225.99810 6.61716e-18
9227.99495 6.42103e-18
9230.00198 6.51003e-18
9231.99883 6.81981e-18
9233.99568 6.97620e-18
9236.00272 7.10525e-18
9237.99956 7.10280e-18
9239.99641 6.84227e-18
9242.00345 6.43547e-18
9244.00030 6.33930e-18
9245.99714 6.57497e-18
9248.00418 6.51177e-18
9250.00103 6.27426e-18
9251.99788 6.02639e-18
9254.00491 5.76142e-18
9256.00176 5.51213e-18
9257.99861 5.45205e-18
9259.99546 5.63404e-18
9262.00249 5.54799e-18
9263.99934 5.20883e-18
9265.99619 5.02761e-18
9268.00322 5.06669e-18
9270.00007 5.18640e-18
9271.99692 5.26632e-18
9274.00396 5.38750e-18
9276.00080 5.36251e-18
9277.99765 5.08433e-18
9279.99450 5.06252e-18
9282.00154 5.34962e-18
9283.99838 5.69365e-18
9285.99523 5.89079e-18
9288.00227 6.02573e-18
9289.99912 6.25828e-18
9291.99596 6.78625e-18
9294.00300 6.80786e-18
9295.99985 5.97182e-18
9297.99670 5.54064e-18
9300.00373 6.42446e-18
9302.00058 8.06307e-18
9303.99743 8.67573e-18
9306.00446 9.41047e-18
9308.00131 8.54550e-18
9309.99816 5.15882e-18
9312.00520 2.93778e-18
9314.00204 3.42886e-18
9315.99889 5.15243e-18
9317.99574 5.65296e-18
9320.00278 5.56981e-18
9321.99962 5.98731e-18
9323.99647 6.66129e-18
9326.00351 7.35591e-18
9328.00036 8.26299e-18
9329.99720 9.02568e-18
9332.00424 8.86567e-18
9334.00109 7.83119e-18
9335.99794 7.30861e-18
9337.99478 6.74398e-18
9340.00182 6.49016e-18
9341.99867 6.78535e-18
9343.99552 7.06156e-18
9346.00255 6.64035e-18
9347.99940 5.69459e-18
9349.99625 5.40638e-18
9352.00328 5.50501e-18
9354.00013 5.62074e-18
9355.99698 5.80033e-18
9358.00402 6.07915e-18
9360.00086 6.51786e-18
9361.99771 7.09119e-18
9364.00475 7.39394e-18
9366.00160 7.54210e-18
9367.99844 7.61430e-18
9369.99529 7.40462e-18
9372.00233 7.39804e-18
9373.99918 7.96215e-18
9375.99602 8.76476e-18
9378.00306 8.78991e-18
9379.99991 8.30808e-18
9381.99676 7.67198e-18
9384.00379 6.25093e-18
9386.00064 5.50230e-18
9387.99749 6.03274e-18
9390.00452 7.00142e-18
9392.00137 6.99766e-18
9393.99822 6.36453e-18
9395.99507 6.04741e-18
9398.00210 5.63197e-18
9399.99895 5.47619e-18
9401.99580 5.77817e-18
9404.00284 6.11111e-18
9405.99968 5.91145e-18
9407.99653 5.31979e-18
9410.00357 5.02594e-18
9412.00042 4.79977e-18
9413.99726 4.66464e-18
9416.00430 4.57752e-18
9418.00115 4.62965e-18
9419.99800 4.95778e-18
9421.99484 5.52836e-18
9424.00188 5.76393e-18
9425.99873 5.73441e-18
9427.99558 5.84293e-18
9430.00261 5.90841e-18
9431.99946 6.17174e-18
9433.99631 6.73638e-18
9436.00334 7.54776e-18
9438.00019 8.72257e-18
9439.99704 1.13033e-17
9442.00408 1.16629e-17
9444.00092 1.01335e-17
9445.99777 8.53891e-18
9448.00481 7.11290e-18
9450.00166 5.80719e-18
9451.99850 5.58286e-18
9453.99535 6.70814e-18
9456.00239 6.65984e-18
9457.99924 5.95665e-18
9459.99608 5.30957e-18
9462.00312 4.70726e-18
9463.99997 4.17482e-18
9465.99682 3.88524e-18
9468.00385 3.66314e-18
9470.00070 4.08573e-18
9471.99755 5.40968e-18
9474.00458 6.30910e-18
9476.00143 6.96487e-18
9477.99828 7.26035e-18
9479.99513 6.83163e-18
9482.00216 5.70379e-18
9483.99901 5.35645e-18
9485.99586 5.55591e-18
9488.00290 5.49126e-18
9489.99974 5.19482e-18
9491.99659 4.94249e-18
9494.00363 4.83301e-18
9496.00048 4.81463e-18
9497.99732 5.19889e-18
9500.00436 6.10226e-18
9502.00121 6.78361e-18
9503.99806 7.67201e-18
9505.99490 8.13056e-18
9508.00194 7.84473e-18
9509.99879 7.08545e-18
9511.99564 6.34737e-18
9514.00267 5.08972e-18
9515.99952 4.59956e-18
9517.99637 4.61705e-18
9520.00340 4.79260e-18
9522.00025 5.12508e-18
9523.99710 5.58774e-18
9526.00414 6.04919e-18
9528.00098 6.79328e-18
9529.99783 6.72274e-18
9532.00487 5.68320e-18
9534.00172 5.14085e-18
9535.99856 5.36354e-18
9537.99541 5.62624e-18
9540.00245 5.04462e-18
9541.99930 3.66512e-18
9543.99614 4.05955e-18
9546.00318 6.27123e-18
9548.00003 7.57318e-18
9549.99688 8.37211e-18
9552.00391 8.65573e-18
9554.00076 8.19392e-18
9555.99761 7.07028e-18
9557.99446 6.06661e-18
9560.00149 4.09594e-18
9561.99834 3.81226e-18
9563.99519 5.30606e-18
9566.00222 6.83693e-18
9567.99907 7.82212e-18
9569.99592 8.56272e-18
9572.00296 8.28394e-18
9573.99980 6.65225e-18
9575.99665 5.73328e-18
9578.00369 4.91679e-18
9580.00054 4.24201e-18
9581.99738 3.60797e-18
9584.00442 3.17765e-18
9586.00127 3.44755e-18
9587.99812 4.58297e-18
9590.00515 5.09565e-18
9592.00200 5.38156e-18
9593.99885 5.61274e-18
9595.99570 5.77366e-18
9598.00273 5.88919e-18
9599.99958 6.03056e-18
9601.99643 6.16885e-18
9604.00346 6.29804e-18
9606.00031 6.58500e-18
9607.99716 6.52806e-18
9610.00420 6.12320e-18
9612.00104 5.50413e-18
9613.99789 4.56601e-18
9615.99474 3.19954e-18
9618.00178 3.39320e-18
9619.99862 5.65326e-18
9621.99547 6.25473e-18
9624.00251 5.41581e-18
9625.99936 4.37353e-18
9627.99620 3.55732e-18
9630.00324 2.75348e-18
9632.00009 3.03143e-18
9633.99694 4.71208e-18
9636.00397 5.48298e-18
9638.00082 6.01492e-18
9639.99767 6.14077e-18
9642.00470 5.55374e-18
9644.00155 4.63102e-18
9645.99840 4.57973e-18
9647.99525 5.25463e-18
9650.00228 5.50468e-18
9651.99913 5.77955e-18
9653.99598 5.78742e-18
9656.00302 5.39900e-18
9657.99986 4.83054e-18
9659.99671 4.37890e-18
9662.00375 3.77457e-18
9664.00060 3.77159e-18
9665.99744 4.45767e-18
9668.00448 4.86609e-18
9670.00133 5.00266e-18
9671.99818 5.00605e-18
9673.99502 4.91193e-18
9676.00206 4.68414e-18
9677.99891 4.49550e-18
9679.99576 4.05256e-18
9682.00279 4.09503e-18
9683.99964 4.89510e-18
9685.99649 5.52500e-18
9688.00352 5.25823e-18
9690.00037 4.44423e-18
9691.99722 4.10643e-18
9694.00426 3.90581e-18
9696.00110 3.79814e-18
9697.99795 3.83383e-18
9699.99480 3.90966e-18
9702.00184 3.96138e-18
9703.99868 4.04125e-18
9705.99553 4.28252e-18
9708.00257 4.77954e-18
9709.99942 5.04306e-18
9711.99626 5.20124e-18
9714.00330 5.30013e-18
9716.00015 5.29777e-18
9717.99700 5.26788e-18
9720.00403 5.42497e-18
9722.00088 5.82049e-18
9723.99773 5.86065e-18
9726.00476 5.76667e-18
9728.00161 5.42706e-18
9729.99846 4.63399e-18
9731.99531 3.80851e-18
9734.00234 3.51295e-18
9735.99919 3.49681e-18
9737.99604 3.82881e-18
9740.00308 4.75488e-18
9741.99992 5.45310e-18
9743.99677 6.10572e-18
9746.00381 6.53607e-18
9748.00066 6.50189e-18
9749.99750 6.09332e-18
9751.99435 5.72710e-18
9754.00139 5.08760e-18
9755.99824 4.73572e-18
9757.99508 4.49333e-18
9760.00212 4.51616e-18
9761.99897 5.07782e-18
9763.99582 5.97241e-18
9766.00285 5.99597e-18
9767.99970 5.26266e-18
9769.99655 4.82131e-18
9772.00358 4.09210e-18
9774.00043 3.86162e-18
9775.99728 4.65202e-18
9778.00432 5.84874e-18
9780.00116 5.99312e-18
9781.99801 5.25869e-18
9784.00505 5.13107e-18
9786.00190 5.45136e-18
9787.99874 5.38737e-18
9789.99559 4.66934e-18
9792.00263 3.78192e-18
9793.99948 3.32346e-18
9795.99632 2.89684e-18
9798.00336 3.32082e-18
9800.00021 5.19268e-18
9801.99706 5.93826e-18
9804.00409 5.32781e-18
9806.00094 4.36026e-18
9807.99779 3.75033e-18
9809.99464 3.08352e-18
9812.00167 3.23618e-18
9813.99852 4.62992e-18
9815.99537 5.02560e-18
9818.00240 4.53725e-18
9819.99925 3.83543e-18
9821.99610 3.10126e-18
9824.00314 2.23474e-18
9825.99998 2.46234e-18
9827.99683 4.12971e-18
9830.00387 4.70212e-18
9832.00072 4.62028e-18
9833.99756 4.37075e-18
9836.00460 3.97237e-18
9838.00145 3.48469e-18
9839.99830 3.59931e-18
9841.99514 4.35669e-18
9844.00218 4.70740e-18
9845.99903 4.94388e-18
9847.99588 5.12312e-18
9850.00291 5.28803e-18
9851.99976 5.37111e-18
9853.99661 5.22237e-18
9856.00364 4.75556e-18
9858.00049 4.64662e-18
9859.99734 4.80199e-18
9862.00438 4.87906e-18
9864.00122 4.94735e-18
9865.99807 4.90024e-18
9868.00511 4.51256e-18
9870.00196 3.79802e-18
9871.99880 3.36716e-18
9873.99565 2.81379e-18
9876.00269 2.78149e-18
9877.99954 3.52479e-18
9879.99638 4.24366e-18
9882.00342 4.29755e-18
9884.00027 3.97766e-18
9885.99712 3.81766e-18
9888.00415 3.44669e-18
9890.00100 3.47569e-18
9891.99785 4.20871e-18
9893.99470 4.53678e-18
9896.00173 3.67902e-18
9897.99858 2.20826e-18
9899.99543 1.91063e-18
9902.00246 2.46502e-18
9903.99931 2.79236e-18
9905.99616 3.35698e-18
9908.00320 3.73135e-18
9910.00004 3.73680e-18
9911.99689 3.57903e-18
9914.00393 3.59923e-18
9916.00078 3.58879e-18
9917.99762 3.86540e-18
9920.00466 4.69266e-18
9922.00151 5.03078e-18
9923.99836 4.65284e-18
9925.99520 4.01015e-18
9928.00224 3.53796e-18
9929.99909 2.85510e-18
9931.99594 3.12569e-18
9934.00297 4.50812e-18
9935.99982 5.39823e-18
9937.99667 6.01474e-18
9940.00370 6.25037e-18
9942.00055 5.65585e-18
9943.99740 4.23608e-18
9946.00444 4.37352e-18
9948.00128 6.23067e-18
9949.99813 6.77326e-18
9951.99498 6.14209e-18
9954.00202 5.39363e-18
9955.99886 5.06800e-18
9957.99571 4.86836e-18
9960.00275 4.62772e-18
9961.99960 3.98107e-18
9963.99644 4.32875e-18
9966.00348 6.46603e-18
9968.00033 7.33039e-18
9969.99718 5.24799e-18
9972.00421 1.85273e-18
9974.00106 8.00229e-19
9975.99791 1.20586e-18
9978.00494 1.29920e-18
9980.00179 1.69936e-18
9981.99864 2.15960e-18
9983.99549 2.68050e-18
9986.00252 3.24558e-18
9987.99937 3.75831e-18
9989.99622 4.30545e-18
9992.00326 4.65097e-18
9994.00010 4.87980e-18
9995.99695 4.95893e-18
9998.00399 4.78905e-18
10000.00084 4.58297e-18
