# wavelength flux
3500.00179 3.52981e-17
3501.99625 3.60957e-17
3504.00105 3.50393e-17
3505.99551 3.25504e-17
3508.00031 3.40241e-17
3509.99477 3.73884e-17
3511.99957 3.42262e-17
3514.00436 3.40234e-17
3515.99882 3.37668e-17
3518.00362 3.30652e-17
3519.99808 3.30115e-17
3522.00288 3.25265e-17
3523.99734 3.71218e-17
3526.00214 3.70396e-17
3527.99660 3.81289e-17
3530.00139 3.87060e-17
3531.99586 3.44126e-17
3534.00065 3.40897e-17
3535.99511 3.46946e-17
3537.99991 3.73549e-17
3540.00471 3.97043e-17
3541.99917 3.70437e-17
3544.00396 3.62240e-17
3545.99843 3.80747e-17
3548.00322 3.45462e-17
3549.99768 3.34336e-17
3552.00248 3.82314e-17
3553.99694 3.70378e-17
3556.00174 3.37965e-17
3557.99620 3.57511e-17
3560.00100 3.72627e-17
3561.99546 3.78370e-17
3564.00025 3.77690e-17
3565.99472 3.42398e-17
3567.99951 3.40799e-17
3570.00431 3.49216e-17
3571.99877 3.39339e-17
3574.00357 4.17009e-17
3575.99803 3.65229e-17
3578.00282 3.45758e-17
3579.99729 3.66422e-17
3582.00208 3.73348e-17
3583.99654 3.57225e-17
3586.00134 3.46841e-17
3587.99580 3.38993e-17
3590.00060 3.52173e-17
3591.99506 3.73722e-17
3593.99986 3.88342e-17
3596.00465 3.42616e-17
3597.99911 3.65873e-17
3600.00391 3.41437e-17
3601.99837 3.54854e-17
3604.00317 3.61228e-17
3605.99763 3.59771e-17
3608.00243 3.25826e-17
3609.99689 3.07416e-17
3612.00168 3.60445e-17
3613.99615 3.58992e-17
3616.00094 3.45755e-17
3617.99540 3.35175e-17
3620.00020 3.44716e-17
3622.00500 3.32822e-17
3623.99946 3.19349e-17
3626.00425 3.33514e-17
3627.99872 3.48858e-17
3630.00351 3.46491e-17
3631.99797 3.82157e-17
3634.00277 3.67505e-17
3635.99723 4.03271e-17
3638.00203 3.64086e-17
3639.99649 3.66203e-17
3642.00129 3.69110e-17
3643.99575 4.00744e-17
3646.00054 3.82560e-17
3647.99501 3.80324e-17
3649.99980 3.42413e-17
3652.00460 3.97834e-17
3653.99906 3.94938e-17
3656.00386 3.98488e-17
3657.99832 3.67723e-17
3660.00311 3.62870e-17
3661.99758 3.95990e-17
3664.00237 3.74845e-17
3665.99683 3.40059e-17
3668.00163 3.81293e-17
3669.99609 3.99276e-17
3672.00089 3.63075e-17
3673.99535 3.60072e-17
3676.00015 3.68214e-17
3677.99461 3.46736e-17
3679.99940 3.39288e-17
3682.00420 3.43501e-17
3683.99866 3.44832e-17
3686.00346 3.33729e-17
3687.99792 3.38595e-17
3690.00272 3.19785e-17
3691.99718 3.27790e-17
3694.00197 3.36968e-17
3695.99644 3.44572e-17
3698.00123 3.43681e-17
3699.99569 3.28426e-17
3702.00049 3.27541e-17
3703.99495 3.26396e-17
3705.99975 3.48344e-17
3708.00454 3.67018e-17
3709.99901 3.31572e-17
3712.00380 3.25475e-17
3713.99826 3.39840e-17
3716.00306 3.32963e-17
3717.99752 3.28695e-17
3720.00232 3.38230e-17
3721.99678 3.54268e-17
3724.00158 3.51039e-17
3725.99604 3.47293e-17
3728.00083 3.55902e-17
3729.99530 3.00809e-17
3732.00009 3.06048e-17
3734.00489 3.18171e-17
3735.99935 3.37430e-17
3738.00415 3.47589e-17
3739.99861 3.42555e-17
3742.00340 3.33632e-17
3743.99787 3.31200e-17
3746.00266 3.39275e-17
3747.99712 3.34640e-17
3750.00192 3.44654e-17
3751.99638 3.25508e-17
3754.00118 3.45494e-17
3755.99564 3.29985e-17
3758.00044 3.30410e-17
3759.99490 3.44166e-17
3761.99969 3.30483e-17
3764.00449 3.13056e-17
3765.99895 3.24220e-17
3768.00375 3.70415e-17
3769.99821 3.54156e-17
3772.00301 3.20203e-17
3773.99747 3.23861e-17
3776.00226 3.29584e-17
3777.99673 3.15937e-17
3780.00152 3.32501e-17
3781.99598 3.48799e-17
3784.00078 3.48447e-17
3785.99524 3.37132e-17
3788.00004 3.48645e-17
3790.00483 3.56930e-17
3791.99930 3.36731e-17
3794.00409 3.28267e-17
3795.99855 3.25604e-17
3798.00335 3.21654e-17
3799.99781 3.37532e-17
3802.00261 3.49283e-17
3803.99707 3.43273e-17
3806.00187 3.45369e-17
3807.99633 3.19046e-17
3810.00112 3.38504e-17
3811.99559 3.67463e-17
3814.00038 3.29077e-17
3815.99484 3.19871e-17
3817.99964 3.30705e-17
3820.00444 3.24457e-17
3821.99890 3.30792e-17
3824.00369 3.41744e-17
3825.99816 3.44351e-17
3828.00295 3.57732e-17
3829.99741 3.48280e-17
3832.00221 3.70371e-17
3859.99702 3.37790e-17
3862.00181 3.54695e-17
3863.99627 3.57036e-17
3866.00107 3.44694e-17
3867.99553 3.32103e-17
3870.00033 3.41721e-17
3871.99479 3.49166e-17
3873.99959 3.50358e-17
3876.00438 3.57797e-17
3877.99884 3.42797e-17
3880.00364 3.45392e-17
3881.99810 3.53848e-17
3884.00290 3.56949e-17
3885.99736 3.49605e-17
3888.00216 3.52834e-17
3889.99662 3.31746e-17
3892.00141 3.24669e-17
3893.99588 3.37826e-17
3896.00067 3.50087e-17
3897.99513 3.58781e-17
3899.99993 3.54248e-17
3902.00473 3.63064e-17
3903.99919 3.75182e-17
3906.00398 3.79288e-17
3907.99845 3.73739e-17
3910.00324 3.54475e-17
3911.99770 3.35601e-17
3914.00250 3.55836e-17
3915.99696 3.75047e-17
3918.00176 3.61638e-17
3919.99622 3.44937e-17
3922.00102 3.49044e-17
3923.99548 3.69635e-17
3926.00027 3.58775e-17
3927.99474 3.41964e-17
3929.99953 3.37959e-17
3932.00433 3.49665e-17
3933.99879 3.62633e-17
3936.00359 3.57233e-17
3937.99805 3.34491e-17
3940.00284 3.48593e-17
3941.99731 3.52818e-17
3944.00210 3.59572e-17
3945.99656 3.45831e-17
3948.00136 3.34878e-17
3949.99582 3.34425e-17
3952.00062 3.46992e-17
3953.99508 3.52097e-17
3955.99988 3.32561e-17
3958.00467 3.32741e-17
3959.99913 3.35447e-17
3962.00393 3.53682e-17
3963.99839 3.46157e-17
3966.00319 3.35732e-17
3967.99765 3.14459e-17
3970.00245 3.41010e-17
3971.99691 3.49387e-17
3974.00170 3.44267e-17
3975.99617 3.43940e-17
3978.00096 3.46765e-17
3979.99542 3.69878e-17
3982.00022 3.51403e-17
3983.99468 3.44021e-17
3985.99948 3.38027e-17
3988.00427 3.30274e-17
3989.99874 3.34231e-17
3992.00353 3.34789e-17
3993.99799 3.59758e-17
3996.00279 3.93774e-17
3997.99725 3.95828e-17
4000.00205 3.64809e-17
4001.99651 3.53667e-17
4004.00131 3.52460e-17
4005.99577 3.53893e-17
4008.00056 3.42510e-17
4009.99503 3.37663e-17
4011.99982 3.52663e-17
4014.00462 3.51081e-17
4015.99908 3.61552e-17
4018.00388 3.42397e-17
4019.99834 3.43454e-17
4022.00313 3.44887e-17
4023.99760 3.62751e-17
4026.00239 3.63051e-17
4027.99685 3.51188e-17
4030.00165 3.49735e-17
4031.99611 3.37129e-17
4034.00091 3.50590e-17
4035.99537 3.57908e-17
4038.00017 3.36666e-17
4040.00496 3.23321e-17
4041.99942 3.04224e-17
4044.00422 3.10794e-17
4045.99868 3.53152e-17
4048.00348 3.57082e-17
4049.99794 3.32864e-17
4052.00274 3.20163e-17
4053.99720 3.49605e-17
4056.00199 3.36031e-17
4057.99646 3.40085e-17
4060.00125 3.27518e-17
4061.99571 3.02213e-17
4064.00051 2.92532e-17
4065.99497 3.06083e-17
4067.99977 3.18130e-17
4070.00456 3.34291e-17
4071.99903 3.25610e-17
4074.00382 3.17931e-17
4075.99828 3.03767e-17
4078.00308 3.22413e-17
4079.99754 3.34815e-17
4082.00234 3.27639e-17
4083.99680 3.52625e-17
4086.00160 3.37348e-17
4087.99606 3.19710e-17
4090.00085 3.06812e-17
4091.99532 3.19327e-17
4094.00011 3.38934e-17
4095.99457 3.57786e-17
4097.99937 3.35931e-17
4100.00417 3.36980e-17
4101.99863 3.38030e-17
4104.00342 3.42686e-17
4105.99789 3.51569e-17
4108.00268 3.32472e-17
4109.99714 3.15373e-17
4112.00194 3.25250e-17
4113.99640 3.23691e-17
4116.00120 3.34432e-17
4117.99566 3.21320e-17
4120.00046 3.28580e-17
4121.99492 3.25159e-17
4123.99971 3.15782e-17
4126.00451 3.23038e-17
4127.99897 3.13541e-17
4130.00377 3.11987e-17
4131.99823 3.36107e-17
4134.00303 3.40376e-17
4135.99749 3.40553e-17
4138.00228 3.25361e-17
4139.99675 3.17857e-17
4142.00154 3.21012e-17
4143.99600 3.20326e-17
4146.00080 3.20878e-17
4147.99526 3.16973e-17
4150.00006 3.30152e-17
4152.00485 3.36766e-17
4153.99932 3.27539e-17
4156.00411 3.22027e-17
4157.99857 3.32844e-17
4160.00337 3.36237e-17
4161.99783 3.16013e-17
4164.00263 3.16565e-17
4165.99709 3.24655e-17
4168.00189 3.30023e-17
4169.99635 3.04383e-17
4172.00114 3.06789e-17
4173.99561 3.28951e-17
4176.00040 3.39375e-17
4177.99486 3.24616e-17
4179.99966 3.29237e-17
4182.00446 3.14856e-17
4183.99892 3.25151e-17
4186.00371 3.23109e-17
4187.99818 3.14410e-17
4190.00297 3.15946e-17
4191.99743 3.15632e-17
4194.00223 3.14087e-17
4195.99669 3.25724e-17
4198.00149 3.23561e-17
4199.99595 3.14626e-17
4202.00075 3.18745e-17
4203.99521 3.18677e-17
4206.00000 3.07165e-17
4208.00480 2.95288e-17
4209.99926 3.12816e-17
4212.00406 3.21235e-17
4213.99852 3.11822e-17
4216.00332 2.98724e-17
4217.99778 3.14638e-17
4220.00257 3.16046e-17
4221.99704 3.17452e-17
4224.00183 3.09401e-17
4225.99629 3.07493e-17
4228.00109 3.11355e-17
4229.99555 3.07115e-17
4232.00035 3.17235e-17
4233.99481 3.13241e-17
4235.99961 3.26299e-17
4238.00440 3.46833e-17
4239.99886 3.52766e-17
4242.00366 3.23759e-17
4243.99812 2.87410e-17
4246.00292 2.98867e-17
4247.99738 3.19751e-17
4250.00218 3.39647e-17
4251.99664 3.22675e-17
4254.00143 2.85998e-17
4255.99590 2.88262e-17
4258.00069 3.20996e-17
4259.99515 3.23129e-17
4261.99995 3.12049e-17
4264.00475 3.12837e-17
4265.99921 3.22306e-17
4268.00400 3.03166e-17
4269.99847 2.94911e-17
4272.00326 3.25395e-17
4273.99772 3.26301e-17
4276.00252 3.27573e-17
4277.99698 3.18221e-17
4280.00178 3.19494e-17
4281.99624 3.16616e-17
4284.00104 3.07761e-17
4285.99550 3.21479e-17
4288.00029 3.14212e-17
4289.99476 3.15606e-17
4291.99955 3.39311e-17
4294.00435 3.19367e-17
4295.99881 3.48302e-17
4298.00361 3.34213e-17
4299.99807 3.36575e-17
4302.00286 3.08246e-17
4303.99733 3.09882e-17
4306.00212 3.25030e-17
4307.99658 3.40171e-17
4310.00138 3.16367e-17
4311.99584 2.88682e-17
4314.00064 3.24984e-17
4315.99510 3.36949e-17
4317.99990 3.12803e-17
4320.00469 3.22578e-17
4321.99915 3.07073e-17
4324.00395 3.35311e-17
4325.99841 3.47990e-17
4328.00321 3.28603e-17
4329.99767 3.19788e-17
4332.00247 3.30397e-17
4333.99693 3.34934e-17
4336.00172 3.18601e-17
4337.99619 3.21077e-17
4340.00098 3.54353e-17
4341.99544 3.42391e-17
4344.00024 3.17828e-17
4345.99470 3.16302e-17
4347.99950 3.22652e-17
4350.00429 3.36266e-17
4351.99876 3.23716e-17
4354.00355 3.47132e-17
4355.99801 3.39305e-17
4358.00281 3.27004e-17
4359.99727 3.29834e-17
4362.00207 2.98428e-17
4363.99653 2.93522e-17
4366.00133 3.29365e-17
4367.99579 3.18169e-17
4370.00058 2.93320e-17
4371.99505 3.05214e-17
4373.99984 3.41505e-17
4376.00464 3.39011e-17
4377.99910 3.31326e-17
4380.00390 3.31974e-17
4381.99836 3.35880e-17
4384.00315 3.34113e-17
4385.99762 3.32468e-17
4388.00241 3.36250e-17
4389.99687 3.33278e-17
4392.00167 3.38987e-17
4393.99613 3.28543e-17
4396.00093 3.13285e-17
4397.99539 3.17428e-17
4400.00019 3.33975e-17
4402.00498 3.32331e-17
4403.99944 3.32013e-17
4406.00424 3.30130e-17
4407.99870 3.27526e-17
4410.00350 3.17585e-17
4411.99796 3.06686e-17
4414.00276 3.18277e-17
4415.99722 3.31666e-17
4418.00201 3.28944e-17
4419.99648 3.22018e-17
4422.00127 3.19419e-17
4423.99573 3.07694e-17
4426.00053 3.03419e-17
4427.99499 3.11750e-17
4429.99979 3.21518e-17
4432.00458 3.20242e-17
4433.99905 3.21245e-17
4436.00384 3.26926e-17
4437.99830 3.02508e-17
4440.00310 3.07111e-17
4441.99756 3.13989e-17
4444.00236 3.11159e-17
4445.99682 3.04975e-17
4448.00162 3.08735e-17
4449.99608 3.20873e-17
4452.00087 3.17445e-17
4453.99534 3.09829e-17
4456.00013 3.10952e-17
4458.00493 3.16379e-17
4459.99939 3.17738e-17
4462.00419 3.21129e-17
4463.99865 3.12326e-17
4466.00344 3.01616e-17
4489.99899 3.04791e-17
4492.00379 3.01977e-17
4493.99825 3.04643e-17
4496.00305 3.13379e-17
4497.99751 3.03184e-17
4500.00230 3.10370e-17
4501.99677 3.13030e-17
4504.00156 3.10337e-17
4505.99602 2.96228e-17
4508.00082 3.02338e-17
4509.99528 3.15338e-17
4512.00008 3.20370e-17
4513.99454 3.17440e-17
4515.99934 3.08811e-17
4518.00413 3.05172e-17
4519.99859 3.09608e-17
4522.00339 3.06921e-17
4523.99785 3.04353e-17
4526.00265 3.06413e-17
4527.99711 3.07998e-17
4530.00191 3.11004e-17
4531.99637 3.08675e-17
4534.00116 2.94733e-17
4535.99563 2.98332e-17
4538.00042 3.07142e-17
4539.99488 3.09197e-17
4541.99968 3.02135e-17
4544.00448 2.94011e-17
4545.99894 2.96423e-17
4548.00373 3.16816e-17
4549.99820 3.11887e-17
4552.00299 3.07553e-17
4553.99745 3.07830e-17
4556.00225 3.02081e-17
4557.99671 3.02359e-17
4560.00151 3.08899e-17
4561.99597 3.02916e-17
4564.00077 2.98354e-17
4565.99523 3.02056e-17
4568.00002 3.01272e-17
4569.99449 2.87747e-17
4571.99928 2.93808e-17
4574.00408 3.03875e-17
4575.99854 3.07807e-17
4578.00334 3.04076e-17
4579.99780 3.03056e-17
4582.00259 2.95323e-17
4583.99706 3.01961e-17
4586.00185 3.05652e-17
4587.99631 3.03809e-17
4590.00111 3.11264e-17
4591.99557 3.05185e-17
4594.00037 3.05814e-17
4595.99483 3.00562e-17
4597.99963 3.00133e-17
4600.00442 3.00880e-17
4601.99888 2.92226e-17
4604.00368 2.94266e-17
4605.99814 3.00768e-17
4608.00294 2.91650e-17
4609.99740 2.87116e-17
4612.00220 2.90446e-17
4613.99666 2.96003e-17
4616.00145 2.98273e-17
4617.99592 2.97611e-17
4620.00071 2.95894e-17
4621.99517 2.99920e-17
4623.99997 2.93868e-17
4626.00477 3.00001e-17
4627.99923 3.12338e-17
4630.00402 3.08277e-17
4631.99849 3.03868e-17
4634.00328 2.90449e-17
4635.99774 2.96809e-17
4638.00254 3.03985e-17
4639.99700 2.92681e-17
4642.00180 2.94126e-17
4643.99626 2.88323e-17
4646.00106 2.82874e-17
4647.99552 2.89927e-17
4650.00031 2.85999e-17
4652.00511 2.76702e-17
4653.99957 2.93555e-17
4656.00437 3.03398e-17
4657.99883 2.90254e-17
4660.00363 2.79449e-17
4661.99809 2.81359e-17
4664.00288 2.83501e-17
4665.99735 2.86109e-17
4668.00214 2.91161e-17
4669.99660 2.94464e-17
4672.00140 2.85304e-17
4673.99586 2.91052e-17
4676.00066 2.88416e-17
4677.99512 2.86363e-17
4679.99992 2.90942e-17
4682.00471 2.75864e-17
4683.99917 2.74630e-17
4686.00397 2.86764e-17
4687.99843 2.84249e-17
4690.00323 2.75113e-17
4691.99769 2.76668e-17
4694.00249 2.79499e-17
4695.99695 2.82909e-17
4698.00174 2.83880e-17
4699.99621 2.87867e-17
4702.00100 2.78396e-17
4703.99546 2.75309e-17
4706.00026 2.86831e-17
4707.99472 2.82120e-17
4709.99952 2.79381e-17
4712.00431 2.79077e-17
4713.99878 2.82942e-17
4716.00357 2.81478e-17
4717.99803 2.81752e-17
4720.00283 2.84109e-17
4721.99729 2.93522e-17
4724.00209 2.95643e-17
4725.99655 2.66310e-17
4728.00135 2.74449e-17
4729.99581 2.75764e-17
4732.00060 2.68875e-17
4733.99507 2.67418e-17
4735.99986 2.70582e-17
4738.00466 2.72128e-17
4739.99912 2.80252e-17
4742.00392 2.72793e-17
4743.99838 2.69145e-17
4746.00317 2.63308e-17
4747.99764 2.64392e-17
4750.00243 2.66744e-17
4751.99689 2.72436e-17
4754.00169 2.76513e-17
4755.99615 2.77477e-17
4758.00095 2.74756e-17
4759.99541 2.74799e-17
4762.00021 2.68397e-17
4763.99467 2.64529e-17
4765.99946 2.66991e-17
4768.00426 2.65886e-17
4769.99872 2.60987e-17
4772.00352 2.61723e-17
4773.99798 2.61425e-17
4776.00278 2.54578e-17
4777.99724 2.72888e-17
4780.00203 2.70290e-17
4781.99650 2.68268e-17
4784.00129 2.71870e-17
4785.99575 2.64341e-17
4788.00055 2.63354e-17
4789.99501 2.60074e-17
4791.99981 2.62872e-17
4794.00460 2.58562e-17
4795.99907 2.52421e-17
4798.00386 2.59457e-17
4799.99832 2.65001e-17
4802.00312 2.60810e-17
4803.99758 2.60169e-17
4806.00238 2.61474e-17
4807.99684 2.57172e-17
4810.00164 2.62137e-17
4811.99610 2.67099e-17
4814.00089 2.67029e-17
4815.99536 2.61359e-17
4818.00015 2.55121e-17
4819.99461 2.55397e-17
4821.99941 2.56243e-17
4824.00421 2.57774e-17
4825.99867 2.63870e-17
4828.00346 2.72244e-17
4829.99793 2.57571e-17
4832.00272 2.50547e-17
4833.99718 2.65531e-17
4836.00198 2.68880e-17
4837.99644 2.60264e-17
4840.00124 2.68853e-17
4841.99570 2.74022e-17
4844.00050 2.63019e-17
4845.99496 2.52250e-17
4847.99975 2.59467e-17
4850.00455 2.63040e-17
4851.99901 2.65587e-17
4854.00381 2.65631e-17
4855.99827 2.59081e-17
4858.00307 2.60491e-17
4859.99753 2.56900e-17
4862.00232 2.63194e-17
4863.99679 2.73686e-17
4866.00158 2.65213e-17
4867.99604 2.58674e-17
4870.00084 2.62351e-17
4871.99530 2.69996e-17
4874.00010 2.61873e-17
4875.99456 2.51373e-17
4877.99936 2.49380e-17
4880.00415 2.47955e-17
4881.99861 2.61939e-17
4884.00341 2.59832e-17
4885.99787 2.51271e-17
4888.00267 2.49394e-17
4889.99713 2.45368e-17
4892.00193 2.52997e-17
4893.99639 2.57456e-17
4896.00118 2.46985e-17
4897.99565 2.49746e-17
4900.00044 2.60871e-17
4901.99490 2.60916e-17
4903.99970 2.60509e-17
4906.00450 2.60328e-17
4907.99896 2.56647e-17
4910.00375 2.54322e-17
4911.99822 2.57980e-17
4914.00301 2.59041e-17
4915.99747 2.56605e-17
4918.00227 2.51915e-17
4919.99673 2.51060e-17
4922.00153 2.60462e-17
4923.99599 2.60506e-17
4926.00079 2.60101e-17
4927.99525 2.55641e-17
4930.00004 2.42852e-17
4932.00484 2.45940e-17
4933.99930 2.53416e-17
4936.00410 2.63363e-17
4937.99856 2.62619e-17
4940.00336 2.67161e-17
4941.99782 2.56637e-17
4944.00261 2.63651e-17
4945.99708 2.63021e-17
4948.00187 2.59358e-17
4949.99633 2.54574e-17
4952.00113 2.54172e-17
4953.99559 2.57810e-17
4956.00039 2.71657e-17
4957.99485 2.67099e-17
4959.99965 2.54357e-17
4962.00444 2.58440e-17
4963.99890 2.54562e-17
4966.00370 2.56177e-17
4967.99816 2.57679e-17
4970.00296 2.60189e-17
4971.99742 2.72103e-17
4974.00222 2.68898e-17
4975.99668 2.44654e-17
4978.00147 2.51864e-17
4979.99594 2.60413e-17
4982.00073 2.64260e-17
4983.99519 2.66875e-17
4985.99999 2.48251e-17
4988.00479 2.48858e-17
4989.99925 2.49129e-17
4992.00404 2.61463e-17
4993.99851 2.59386e-17
4996.00330 2.57979e-17
4997.99776 2.71417e-17
5027.99737 2.98172e-17
5030.00216 2.69865e-17
5031.99662 2.54906e-17
5034.00142 2.53952e-17
5035.99588 2.59441e-17
5038.00068 2.60041e-17
5039.99514 2.52427e-17
5041.99994 2.56025e-17
5044.00473 2.54740e-17
5045.99919 2.47909e-17
5048.00399 2.94976e-17
5049.99845 2.95012e-17
5052.00325 2.59913e-17
5053.99771 2.61288e-17
5056.00251 2.57012e-17
5057.99697 2.59051e-17
5060.00176 2.63304e-17
5061.99623 2.61024e-17
5064.00102 2.55093e-17
5065.99548 2.64101e-17
5068.00028 2.61269e-17
5069.99474 2.62531e-17
5071.99954 2.62354e-17
5074.00433 2.60630e-17
5075.99880 2.67195e-17
5078.00359 2.58621e-17
5079.99805 2.71258e-17
5082.00285 2.70527e-17
5083.99731 2.58206e-17
5086.00211 2.73924e-17
5087.99657 2.58187e-17
5090.00137 2.51725e-17
5091.99583 2.67984e-17
5094.00062 2.62955e-17
5095.99509 2.56607e-17
5186.00423 2.61970e-17
5187.99869 2.64196e-17
5190.00348 2.54870e-17
5191.99795 2.47401e-17
5194.00274 2.47124e-17
5195.99720 2.56538e-17
5198.00200 2.59743e-17
5199.99646 2.59354e-17
5202.00126 2.51458e-17
5203.99572 2.44218e-17
5206.00052 2.50468e-17
5207.99498 2.63130e-17
5209.99977 2.57306e-17
5212.00457 2.58223e-17
5213.99903 2.67723e-17
5216.00383 2.57883e-17
5217.99829 2.52718e-17
5220.00309 2.53201e-17
5221.99755 2.57157e-17
5224.00234 2.53515e-17
5225.99681 2.52153e-17
5228.00160 2.46236e-17
5229.99606 2.45419e-17
5232.00086 2.48831e-17
5233.99532 2.47146e-17
5236.00012 2.43620e-17
5238.00491 2.41613e-17
5239.99938 2.48164e-17
5242.00417 2.47889e-17
5243.99863 2.42309e-17
5246.00343 2.43876e-17
5247.99789 2.43386e-17
5250.00269 2.43005e-17
5251.99715 2.41650e-17
5254.00195 2.38999e-17
5255.99641 2.40457e-17
5258.00120 2.44400e-17
5259.99567 2.45965e-17
5262.00046 2.42342e-17
5263.99492 2.42070e-17
5265.99972 2.46766e-17
5268.00452 2.42390e-17
5269.99898 2.42442e-17
5272.00377 2.47782e-17
5273.99824 2.49667e-17
5276.00303 2.43676e-17
5277.99749 2.39738e-17
5280.00229 2.44535e-17
5281.99675 2.44910e-17
5284.00155 2.39681e-17
5285.99601 2.44690e-17
5288.00081 2.50989e-17
5289.99527 2.46732e-17
5292.00006 2.44414e-17
5294.00486 2.42636e-17
5295.99932 2.40106e-17
5298.00412 2.37038e-17
5299.99858 2.37522e-17
5302.00338 2.40480e-17
5303.99784 2.44726e-17
5306.00263 2.40586e-17
5307.99710 2.35050e-17
5310.00189 2.33170e-17
5311.99635 2.29465e-17
5314.00115 2.29306e-17
5315.99561 2.34086e-17
5318.00041 2.37576e-17
5319.99487 2.35913e-17
5321.99967 2.35538e-17
5324.00446 2.33340e-17
5325.99892 2.32858e-17
5328.00372 2.29589e-17
5329.99818 2.36721e-17
5332.00298 2.39776e-17
5333.99744 2.35222e-17
5336.00224 2.30991e-17
5337.99670 2.27405e-17
5340.00149 2.28211e-17
5341.99596 2.36512e-17
5344.00075 2.37102e-17
5345.99521 2.24100e-17
5348.00001 2.28223e-17
5349.99447 2.32024e-17
5351.99927 2.33897e-17
5354.00406 2.37481e-17
5355.99853 2.32618e-17
5358.00332 2.31712e-17
5359.99778 2.29204e-17
5362.00258 2.24239e-17
5363.99704 2.31239e-17
5366.00184 2.34819e-17
5367.99630 2.35515e-17
5370.00110 2.37385e-17
5371.99556 2.38080e-17
5374.00035 2.32694e-17
5375.99482 2.27950e-17
5377.99961 2.29287e-17
5380.00441 2.32435e-17
5381.99887 2.34730e-17
5384.00367 2.37770e-17
5385.99813 2.39743e-17
5388.00292 2.37454e-17
5389.99739 2.35699e-17
5392.00218 2.36287e-17
5393.99664 2.36875e-17
5396.00144 2.36611e-17
5397.99590 2.35709e-17
5400.00070 2.34275e-17
5401.99516 2.32842e-17
5403.99996 2.32048e-17
5405.99442 2.31573e-17
5407.99921 2.32799e-17
5410.00401 2.30730e-17
5411.99847 2.25687e-17
5414.00327 2.23302e-17
5415.99773 2.25379e-17
5418.00253 2.26605e-17
5419.99699 2.28150e-17
5422.00178 2.29587e-17
5423.99625 2.29963e-17
5426.00104 2.29384e-17
5427.99550 2.28806e-17
5430.00030 2.28439e-17
5431.99476 2.28497e-17
5433.99956 2.27707e-17
5436.00435 2.26599e-17
5437.99882 2.25068e-17
5440.00361 2.25021e-17
5441.99807 2.26775e-17
5444.00287 2.28422e-17
5445.99733 2.25198e-17
5448.00213 2.23352e-17
5449.99659 2.29232e-17
5452.00139 2.29184e-17
5453.99585 2.27338e-17
5456.00064 2.27291e-17
5457.99511 2.25658e-17
5459.99990 2.19585e-17
5462.00470 2.11718e-17
5463.99916 2.20869e-17
5466.00396 2.33502e-17
5467.99842 2.34933e-17
5470.00321 2.28653e-17
5471.99768 2.21109e-17
5474.00247 2.21909e-17
5475.99693 2.27774e-17
5478.00173 2.26145e-17
5479.99619 2.22406e-17
5482.00099 2.20989e-17
5483.99545 2.18202e-17
5486.00025 2.16155e-17
5487.99471 2.18114e-17
5489.99950 2.23972e-17
5492.00430 2.24770e-17
5493.99876 2.22828e-17
5496.00356 2.22677e-17
5497.99802 2.21579e-17
5500.00282 2.19429e-17
5501.99728 2.18227e-17
5504.00207 2.18394e-17
5505.99654 2.18560e-17
5508.00133 2.19463e-17
5509.99579 2.19630e-17
5512.00059 2.19586e-17
5513.99505 2.19542e-17
5515.99985 2.19393e-17
5518.00464 2.19455e-17
5519.99911 2.18466e-17
5522.00390 2.14430e-17
5523.99836 2.11656e-17
5526.00316 2.10459e-17
5527.99762 2.10313e-17
5530.00242 2.12056e-17
5531.99688 2.15688e-17
5534.00168 2.19213e-17
5535.99614 2.23786e-17
5538.00093 2.24057e-17
5539.99540 2.19399e-17
5542.00019 2.12540e-17
5543.99465 2.10192e-17
5545.99945 2.11095e-17
5548.00425 2.12206e-17
5549.99871 2.13108e-17
5552.00350 2.13381e-17
5553.99797 2.12711e-17
5556.00276 2.09319e-17
5557.99722 2.07080e-17
5560.00202 2.08819e-17
5561.99648 2.11814e-17
5564.00128 2.13656e-17
5565.99574 2.09849e-17
5568.00054 2.04788e-17
5569.99500 2.03913e-17
5571.99979 2.02410e-17
5574.00459 2.00280e-17
5575.99905 1.98779e-17
5578.00385 1.98114e-17
5579.99831 1.98390e-17
5582.00311 2.00023e-17
5583.99757 2.01343e-17
5586.00236 2.02035e-17
5587.99683 2.02937e-17
5590.00162 2.03316e-17
5591.99608 2.03382e-17
5594.00088 2.03239e-17
5595.99534 2.02262e-17
5598.00014 2.02328e-17
5599.99460 2.06669e-17
5601.99940 2.09237e-17
5604.00419 2.07738e-17
5605.99865 2.05615e-17
5608.00345 2.03806e-17
5609.99791 2.00121e-17
5612.00271 1.97688e-17
5613.99717 1.99318e-17
5616.00197 2.03550e-17
5617.99643 2.06218e-17
5620.00122 2.06076e-17
5621.99569 2.04789e-17
5624.00048 2.03087e-17
5625.99494 2.00969e-17
5627.99974 1.96668e-17
5630.00454 1.97463e-17
5631.99900 1.99610e-17
5634.00379 2.00821e-17
5635.99826 2.03590e-17
5638.00305 2.07917e-17
5639.99751 2.09229e-17
5642.00231 2.05971e-17
5643.99677 2.04064e-17
5646.00157 2.04962e-17
5647.99603 2.03263e-17
5650.00083 1.98971e-17
5651.99529 1.94680e-17
5654.00008 1.93815e-17
5655.99455 1.94402e-17
5657.99934 1.97168e-17
5660.00414 2.04287e-17
5661.99860 2.06532e-17
5664.00340 2.00586e-17
5665.99786 1.90807e-17
5668.00265 1.89115e-17
5669.99712 1.95608e-17
5672.00191 2.01478e-17
5673.99637 2.04860e-17
5676.00117 2.03788e-17
5677.99563 1.99300e-17
5680.00043 1.95020e-17
5681.99489 1.95193e-17
5683.99969 1.98366e-17
5686.00448 2.00607e-17
5687.99894 2.03364e-17
5690.00374 1.99398e-17
5691.99820 1.95227e-17
5694.00300 1.97881e-17
5695.99746 1.97846e-17
5698.00226 1.92644e-17
5699.99672 1.86307e-17
5702.00151 1.83175e-17
5703.99598 1.82833e-17
5706.00077 1.83317e-17
5707.99523 1.88242e-17
5710.00003 1.93474e-17
5712.00483 1.97363e-17
5713.99929 1.95471e-17
5716.00408 1.87802e-17
5717.99855 1.84365e-17
5720.00334 1.87943e-17
5721.99780 1.90386e-17
5724.00260 1.91487e-17
5725.99706 1.93619e-17
5728.00186 1.93792e-17
5729.99632 1.91286e-17
5732.00112 1.90841e-17
5733.99558 1.90705e-17
5736.00037 1.86552e-17
5737.99484 1.85181e-17
5739.99963 1.84841e-17
5742.00443 1.85015e-17
5743.99889 1.85910e-17
5746.00369 1.86291e-17
5747.99815 1.83995e-17
5750.00294 1.84581e-17
5751.99741 1.87019e-17
5754.00220 1.89045e-17
5755.99666 1.93743e-17
5758.00146 2.01422e-17
5759.99592 2.02725e-17
5762.00072 1.93029e-17
5763.99518 1.88475e-17
5765.99998 1.90498e-17
5768.00477 1.93651e-17
5769.99923 1.96290e-17
5772.00403 1.96462e-17
5773.99849 1.92014e-17
5776.00329 1.83769e-17
5777.99775 1.80044e-17
5780.00255 1.79911e-17
5781.99701 1.80600e-17
5784.00180 1.78210e-17
5785.99627 1.75616e-17
5788.00106 1.75485e-17
5789.99552 1.77302e-17
5792.00032 1.79016e-17
5793.99478 1.80422e-17
5795.99958 1.82955e-17
5798.00437 1.86409e-17
5799.99884 1.86174e-17
5802.00363 1.82763e-17
5803.99809 1.79353e-17
5806.00289 1.80962e-17
5807.99735 1.85848e-17
5810.00215 1.83873e-17
5811.99661 1.79441e-17
5814.00141 1.79208e-17
5815.99587 1.81941e-17
5818.00066 1.86005e-17
5819.99513 1.88225e-17
5821.99992 1.89627e-17
5824.00472 1.90415e-17
5825.99918 1.90691e-17
5828.00398 1.84629e-17
5829.99844 1.81124e-17
5832.00323 1.81299e-17
5833.99770 1.80044e-17
5836.00249 1.73682e-17
5837.99695 1.74369e-17
5840.00175 1.83942e-17
5841.99621 1.88814e-17
5844.00101 1.92460e-17
5845.99547 1.95798e-17
5848.00027 1.96278e-17
5849.99473 1.93390e-17
5851.99952 1.91522e-17
5854.00432 1.90676e-17
5855.99878 1.91054e-17
5858.00358 1.90922e-17
5859.99804 1.87324e-17
5862.00284 1.86784e-17
5863.99730 1.91343e-17
5866.00209 1.95492e-17
5867.99656 1.93933e-17
5870.00135 1.91355e-17
5871.99581 1.90103e-17
5874.00061 1.84369e-17
5875.99507 1.82304e-17
5877.99987 1.88793e-17
5880.00466 1.88357e-17
5881.99913 1.87819e-17
5884.00392 1.87281e-17
5885.99838 1.86845e-17
5888.00318 1.86307e-17
5889.99764 1.85770e-17
5892.00244 1.85335e-17
5893.99690 1.84798e-17
5896.00170 1.84261e-17
5897.99616 1.83827e-17
5900.00095 1.83290e-17
5901.99542 1.82754e-17
5904.00021 1.82218e-17
5905.99467 1.82292e-17
5907.99947 1.71800e-17
5910.00427 1.70048e-17
5911.99873 1.72459e-17
5914.00352 1.82284e-17
5915.99799 1.85506e-17
5918.00278 1.82128e-17
5919.99724 1.75096e-17
5922.00204 1.69488e-17
5923.99650 1.65302e-17
5926.00130 1.64162e-17
5927.99576 1.63427e-17
5930.00056 1.64721e-17
5931.99502 1.68550e-17
5933.99981 1.70452e-17
5936.00461 1.73468e-17
5937.99907 1.76281e-17
5940.00387 1.75849e-17
5941.99833 1.72580e-17
5944.00313 1.72352e-17
5945.99759 1.69085e-17
5948.00238 1.67541e-17
5949.99685 1.70149e-17
5952.00164 1.72251e-17
5953.99610 1.71719e-17
5956.00090 1.70581e-17
5957.99536 1.69645e-17
5960.00016 1.67798e-17
5961.99462 1.67774e-17
5963.99942 1.70987e-17
5966.00421 1.75615e-17
5967.99867 1.73668e-17
5970.00347 1.65451e-17
5971.99793 1.60978e-17
5974.00273 1.62673e-17
5975.99719 1.63560e-17
5978.00199 1.62424e-17
5979.99645 1.62401e-17
5982.00124 1.64297e-17
5983.99571 1.66294e-17
5986.00050 1.65765e-17
5987.99496 1.62913e-17
5989.99976 1.65819e-17
5992.00456 1.70844e-17
5993.99902 1.72434e-17
5996.00381 1.70896e-17
5997.99828 1.67944e-17
6000.00307 1.68122e-17
6001.99753 1.72134e-17
6004.00233 1.73623e-17
6005.99679 1.68858e-17
6008.00159 1.63287e-17
6009.99605 1.63667e-17
6012.00085 1.66467e-17
6013.99531 1.68056e-17
6016.00010 1.68940e-17
6018.00490 1.68311e-17
6019.99936 1.66978e-17
6022.00416 1.68969e-17
6023.99862 1.71968e-17
6026.00342 1.74361e-17
6027.99788 1.72625e-17
6030.00267 1.67264e-17
6031.99714 1.64622e-17
6034.00193 1.67016e-17
6035.99639 1.66187e-17
6038.00119 1.62138e-17
6039.99565 1.59600e-17
6042.00045 1.60282e-17
6043.99491 1.62574e-17
6045.99971 1.61344e-17
6048.00450 1.55388e-17
6049.99896 1.53657e-17
6052.00376 1.56451e-17
6053.99822 1.59546e-17
6056.00302 1.61736e-17
6057.99748 1.63221e-17
6060.00228 1.62495e-17
6061.99674 1.58554e-17
6064.00153 1.57428e-17
6065.99600 1.61625e-17
6068.00079 1.67026e-17
6069.99525 1.69816e-17
6072.00005 1.71600e-17
6074.00485 1.71275e-17
6075.99931 1.68843e-17
6078.00410 1.67716e-17
6079.99857 1.67091e-17
6082.00336 1.62854e-17
6083.99782 1.59722e-17
6086.00262 1.56891e-17
6087.99708 1.55566e-17
6090.00188 1.57050e-17
6091.99634 1.59736e-17
6094.00114 1.60918e-17
6095.99560 1.58891e-17
6098.00039 1.59571e-17
6099.99486 1.62056e-17
6101.99965 1.61032e-17
6104.00445 1.56702e-17
6105.99891 1.53075e-17
6108.00371 1.51051e-17
6109.99817 1.50630e-17
6112.00296 1.52112e-17
6113.99743 1.58100e-17
6116.00222 1.63685e-17
6117.99668 1.68268e-17
6120.00148 1.68646e-17
6121.99594 1.65121e-17
6124.00074 1.61697e-17
6125.99520 1.57374e-17
6128.00000 1.54352e-17
6130.00479 1.55532e-17
6131.99925 1.58112e-17
6134.00405 1.61091e-17
6135.99851 1.65469e-17
6138.00331 1.66447e-17
6139.99777 1.62027e-17
6142.00257 1.59607e-17
6143.99703 1.55789e-17
6146.00182 1.52371e-17
6147.99629 1.52851e-17
6150.00108 1.55728e-17
6151.99554 1.58005e-17
6154.00034 1.62378e-17
6155.99480 1.65652e-17
6157.99960 1.64832e-17
6160.00439 1.60618e-17
6161.99886 1.60098e-17
6164.00365 1.62373e-17
6165.99811 1.62552e-17
6168.00291 1.59138e-17
6169.99737 1.55127e-17
6172.00217 1.50020e-17
6173.99663 1.47208e-17
6176.00143 1.48685e-17
6177.99589 1.52355e-17
6180.00068 1.56523e-17
6181.99515 1.62484e-17
6183.99994 1.64457e-17
6185.99440 1.62343e-17
6187.99920 1.62123e-17
6190.00400 1.59113e-17
6191.99846 1.53614e-17
6194.00325 1.50208e-17
6195.99772 1.48495e-17
6198.00251 1.47082e-17
6199.99697 1.47462e-17
6202.00177 1.49335e-17
6203.99623 1.47823e-17
6206.00103 1.42927e-17
6207.99549 1.40819e-17
6210.00029 1.41995e-17
6211.99475 1.44365e-17
6213.99954 1.45640e-17
6216.00434 1.46816e-17
6217.99880 1.49681e-17
6220.00360 1.51850e-17
6221.99806 1.51732e-17
6224.00286 1.49526e-17
6225.99732 1.46326e-17
6228.00211 1.41835e-17
6229.99658 1.39233e-17
6232.00137 1.38222e-17
6233.99583 1.39298e-17
6236.00063 1.40671e-17
6237.99509 1.41846e-17
6239.99989 1.42821e-17
6241.99435 1.44095e-17
6243.99915 1.44573e-17
6246.00394 1.45449e-17
6247.99840 1.47217e-17
6250.00320 1.45710e-17
6251.99766 1.44104e-17
6254.00246 1.44682e-17
6255.99692 1.46053e-17
6258.00172 1.44944e-17
6259.99618 1.43934e-17
6262.00097 1.43321e-17
6263.99544 1.41122e-17
6266.00023 1.40609e-17
6267.99469 1.40294e-17
6269.99949 1.38889e-17
6272.00429 1.36790e-17
6273.99875 1.35683e-17
6276.00354 1.36459e-17
6277.99801 1.38226e-17
6280.00280 1.39497e-17
6281.99726 1.40273e-17
6284.00206 1.42435e-17
6285.99652 1.44992e-17
6288.00132 1.46361e-17
6289.99578 1.43967e-17
6292.00058 1.42167e-17
6293.99504 1.42942e-17
6295.99983 1.44013e-17
6298.00463 1.47262e-17
6299.99909 1.49520e-17
6302.00389 1.48908e-17
6303.99835 1.46120e-17
6306.00315 1.46795e-17
6307.99761 1.47469e-17
6310.00240 1.44386e-17
6311.99687 1.42786e-17
6314.00166 1.44549e-17
6315.99612 1.48288e-17
6318.00092 1.50445e-17
6319.99538 1.52502e-17
6322.00018 1.52879e-17
6323.99464 1.51576e-17
6325.99944 1.49780e-17
6328.00423 1.49268e-17
6329.99869 1.49151e-17
6332.00349 1.49331e-17
6333.99795 1.50893e-17
6336.00275 1.51369e-17
6337.99721 1.48783e-17
6340.00201 1.47384e-17
6341.99647 1.49044e-17
6344.00126 1.50408e-17
6345.99573 1.49403e-17
6348.00052 1.47609e-17
6349.99498 1.47592e-17
6351.99978 1.46391e-17
6354.00458 1.47557e-17
6355.99904 1.49610e-17
6358.00383 1.50579e-17
6359.99830 1.50758e-17
6362.00309 1.51628e-17
6363.99755 1.52300e-17
6366.00235 1.51395e-17
6367.99681 1.50982e-17
6370.00161 1.50176e-17
6371.99607 1.48484e-17
6374.00087 1.48171e-17
6375.99533 1.48941e-17
6378.00012 1.49121e-17
6379.99459 1.48611e-17
6381.99938 1.50563e-17
6384.00418 1.52416e-17
6385.99864 1.53579e-17
6388.00344 1.54644e-17
6389.99790 1.55019e-17
6392.00269 1.53623e-17
6393.99716 1.50260e-17
6396.00195 1.49455e-17
6397.99641 1.49929e-17
6400.00121 1.50010e-17
6401.99567 1.50780e-17
6404.00047 1.52040e-17
6405.99493 1.52613e-17
6407.99973 1.52497e-17
6410.00452 1.53069e-17
6411.99898 1.53837e-17
6414.00378 1.55392e-17
6415.99824 1.56750e-17
6418.00304 1.57812e-17
6419.99750 1.57892e-17
6422.00230 1.57284e-17
6423.99676 1.56284e-17
6426.00155 1.55382e-17
6427.99602 1.52516e-17
6430.00081 1.50731e-17
6431.99527 1.51008e-17
6434.00007 1.51972e-17
6435.99453 1.53427e-17
6437.99933 1.54391e-17
6440.00412 1.54569e-17
6441.99859 1.53079e-17
6444.00338 1.51197e-17
6445.99784 1.50199e-17
6448.00264 1.52143e-17
6449.99710 1.56441e-17
6452.00190 1.58483e-17
6453.99636 1.57190e-17
6456.00116 1.54525e-17
6457.99562 1.52742e-17
6460.00041 1.51646e-17
6461.99488 1.51041e-17
6463.99967 1.52297e-17
6466.00447 1.53358e-17
6467.99893 1.53242e-17
6470.00373 1.51951e-17
6471.99819 1.51150e-17
6474.00298 1.50447e-17
6475.99745 1.50822e-17
6478.00224 1.52273e-17
6479.99670 1.52256e-17
6482.00150 1.50378e-17
6483.99596 1.48599e-17
6486.00076 1.48386e-17
6487.99522 1.48076e-17
6490.00002 1.46689e-17
6491.99448 1.44422e-17
6493.99927 1.43231e-17
6496.00407 1.43410e-17
6497.99853 1.46035e-17
6500.00333 1.51300e-17
6501.99779 1.55096e-17
6504.00259 1.57132e-17
6505.99705 1.57994e-17
6508.00184 1.56999e-17
6509.99631 1.53560e-17
6512.00110 1.50024e-17
6513.99556 1.46880e-17
6516.00036 1.46472e-17
6517.99482 1.47823e-17
6519.99962 1.49174e-17
6522.00441 1.49939e-17
6523.99888 1.50508e-17
6526.00367 1.50198e-17
6527.99813 1.48911e-17
6530.00293 1.48504e-17
6531.99739 1.50049e-17
6534.00219 1.51301e-17
6535.99665 1.50308e-17
6538.00145 1.49315e-17
6539.99591 1.50079e-17
6542.00070 1.51818e-17
6543.99517 1.51801e-17
6545.99996 1.50126e-17
6548.00476 1.48451e-17
6549.99922 1.47361e-17
6552.00402 1.46954e-17
6553.99848 1.46060e-17
6556.00327 1.44289e-17
6557.99774 1.43493e-17
6560.00253 1.44061e-17
6561.99699 1.46969e-17
6564.00179 1.52117e-17
6565.99625 1.55803e-17
6568.00105 1.54714e-17
6569.99551 1.51287e-17
6572.00031 1.50393e-17
6573.99477 1.51740e-17
6575.99956 1.51820e-17
6578.00436 1.51608e-17
6579.99882 1.50326e-17
6582.00362 1.48362e-17
6583.99808 1.46204e-17
6586.00288 1.44825e-17
6587.99734 1.44030e-17
6590.00213 1.44597e-17
6591.99660 1.46527e-17
6594.00139 1.47192e-17
6595.99585 1.46981e-17
6598.00065 1.47353e-17
6599.99511 1.47337e-17
6601.99991 1.46348e-17
6604.00470 1.45262e-17
6605.99917 1.44954e-17
6608.00396 1.44549e-17
6609.99842 1.43853e-17
6612.00322 1.43351e-17
6613.99768 1.44306e-17
6616.00248 1.46039e-17
6617.99694 1.46314e-17
6620.00174 1.45326e-17
6621.99620 1.46282e-17
6624.00099 1.46265e-17
6625.99546 1.44792e-17
6628.00025 1.44096e-17
6629.99471 1.43595e-17
6631.99951 1.43482e-17
6634.00431 1.44339e-17
6635.99877 1.45682e-17
6638.00356 1.45763e-17
6639.99803 1.44679e-17
6642.00282 1.46021e-17
6643.99728 1.48722e-17
6646.00208 1.48608e-17
6647.99654 1.45294e-17
6650.00134 1.43047e-17
6651.99580 1.42740e-17
6654.00060 1.42530e-17
6655.99506 1.42321e-17
6657.99985 1.42693e-17
6660.00465 1.43937e-17
6661.99911 1.46150e-17
6664.00391 1.47199e-17
6665.99837 1.46214e-17
6668.00317 1.45326e-17
6669.99763 1.44438e-17
6672.00242 1.43744e-17
6673.99689 1.44503e-17
6676.00168 1.45358e-17
6677.99614 1.44567e-17
6680.00094 1.42809e-17
6681.99540 1.43470e-17
6684.00020 1.44519e-17
6685.99466 1.44116e-17
6687.99946 1.42648e-17
6690.00425 1.40697e-17
6691.99871 1.39908e-17
6694.00351 1.40569e-17
6695.99797 1.41134e-17
6698.00277 1.40538e-17
6699.99723 1.39555e-17
6702.00203 1.38863e-17
6703.99649 1.37590e-17
6706.00128 1.37285e-17
6707.99575 1.38527e-17
6710.00054 1.39671e-17
6711.99500 1.38882e-17
6713.99980 1.38480e-17
6716.00460 1.39625e-17
6717.99906 1.41252e-17
6720.00385 1.41043e-17
6721.99832 1.39095e-17
6724.00311 1.37728e-17
6725.99757 1.38292e-17
6728.00237 1.40304e-17
6729.99683 1.40868e-17
6732.00163 1.39404e-17
6733.99609 1.38906e-17
6736.00089 1.39759e-17
6737.99535 1.40709e-17
6740.00014 1.40983e-17
6741.99461 1.39809e-17
6743.99940 1.38540e-17
6746.00420 1.37946e-17
6747.99866 1.37641e-17
6750.00346 1.37047e-17
6930.00107 1.19067e-17
6931.99553 1.22491e-17
6934.00033 1.27251e-17
6935.99479 1.30386e-17
6937.99958 1.31040e-17
6940.00438 1.30071e-17
6941.99884 1.30056e-17
6944.00364 1.30041e-17
6945.99810 1.29264e-17
6948.00290 1.27723e-17
6949.99736 1.27232e-17
6952.00215 1.27790e-17
6953.99662 1.29587e-17
6956.00141 1.30717e-17
6957.99587 1.29844e-17
6960.00067 1.27637e-17
6961.99513 1.24001e-17
6963.99993 1.21033e-17
6965.99439 1.19494e-17
6967.99919 1.19576e-17
6970.00398 1.18610e-17
6971.99844 1.18120e-17
6974.00324 1.18869e-17
6975.99770 1.19999e-17
6978.00250 1.19985e-17
6979.99696 1.19115e-17
6982.00176 1.17959e-17
6983.99622 1.16613e-17
6986.00101 1.15267e-17
6987.99548 1.15730e-17
6990.00027 1.17620e-17
6991.99473 1.18178e-17
6993.99953 1.17498e-17
6996.00433 1.17295e-17
6997.99879 1.17187e-17
7000.00358 1.16412e-17
7001.99805 1.16209e-17
7004.00284 1.16862e-17
7005.99730 1.16943e-17
7008.00210 1.16455e-17
7009.99656 1.16062e-17
7012.00136 1.16238e-17
7013.99582 1.16225e-17
7016.00062 1.15642e-17
7017.99508 1.14774e-17
7019.99987 1.15616e-17
7021.99434 1.17788e-17
7023.99913 1.19294e-17
7026.00393 1.19945e-17
7027.99839 1.19647e-17
7030.00319 1.18209e-17
7031.99765 1.16677e-17
7034.00244 1.16473e-17
7035.99691 1.16555e-17
7038.00170 1.15973e-17
7039.99616 1.14441e-17
7042.00096 1.13954e-17
7043.99542 1.14510e-17
7046.00022 1.14402e-17
7047.99468 1.15053e-17
7049.99948 1.16842e-17
7052.00427 1.17587e-17
7053.99873 1.17005e-17
7056.00353 1.15949e-17
7057.99799 1.14893e-17
7060.00279 1.14880e-17
7061.99725 1.15246e-17
7064.00205 1.15233e-17
7065.99651 1.15220e-17
7068.00130 1.15585e-17
7069.99577 1.15288e-17
7072.00056 1.13002e-17
7073.99502 1.12136e-17
7075.99982 1.12597e-17
7078.00462 1.12205e-17
7079.99908 1.11909e-17
7082.00387 1.12180e-17
7083.99834 1.13208e-17
7086.00313 1.14994e-17
7087.99759 1.16305e-17
7090.00239 1.16576e-17
7091.99685 1.17036e-17
7094.00165 1.16833e-17
7095.99611 1.16063e-17
7098.00091 1.15671e-17
7099.99537 1.15753e-17
7102.00016 1.14794e-17
7104.00496 1.13079e-17
7105.99942 1.12120e-17
7108.00422 1.11918e-17
7109.99868 1.12473e-17
7112.00348 1.13405e-17
7113.99794 1.14998e-17
7116.00273 1.15457e-17
7117.99720 1.13838e-17
7120.00199 1.10897e-17
7121.99645 1.10223e-17
7124.00125 1.11155e-17
7125.99571 1.11897e-17
7128.00051 1.12829e-17
7129.99497 1.13476e-17
7131.99977 1.13086e-17
7134.00456 1.11751e-17
7135.99902 1.11361e-17
7138.00382 1.10971e-17
7139.99828 1.11052e-17
7142.00308 1.11794e-17
7143.99754 1.12913e-17
7146.00234 1.14504e-17
7147.99680 1.15339e-17
7150.00159 1.14100e-17
7151.99606 1.12201e-17
7154.00085 1.11528e-17
7155.99531 1.11233e-17
7158.00011 1.11031e-17
7159.99457 1.11395e-17
7161.99937 1.10911e-17
7164.00416 1.09014e-17
7165.99863 1.07306e-17
7168.00342 1.07670e-17
7169.99788 1.09824e-17
7172.00268 1.12260e-17
7173.99714 1.14978e-17
7176.00194 1.16000e-17
7177.99640 1.15045e-17
7180.00120 1.15032e-17
7181.99566 1.14642e-17
7184.00045 1.13970e-17
7185.99492 1.13392e-17
7187.99971 1.12438e-17
7190.00451 1.10920e-17
7191.99897 1.08931e-17
7194.00377 1.09013e-17
7195.99823 1.11445e-17
7198.00302 1.13125e-17
7199.99749 1.11325e-17
7202.00228 1.07552e-17
7203.99674 1.06505e-17
7206.00154 1.08937e-17
7207.99600 1.11273e-17
7210.00080 1.11260e-17
7211.99526 1.10496e-17
7214.00006 1.09731e-17
7215.99452 1.07558e-17
7217.99931 1.06418e-17
7220.00411 1.06594e-17
7221.99857 1.07238e-17
7224.00337 1.07602e-17
7225.99783 1.08903e-17
7228.00263 1.09172e-17
7229.99709 1.08033e-17
7232.00188 1.08396e-17
7233.99635 1.10635e-17
7236.00114 1.12124e-17
7237.99560 1.11078e-17
7240.00040 1.10972e-17
7241.99486 1.10865e-17
7243.99966 1.08976e-17
7246.00445 1.08682e-17
7247.99892 1.09232e-17
7250.00371 1.08844e-17
7251.99817 1.06675e-17
7254.00297 1.07412e-17
7255.99743 1.10586e-17
7258.00223 1.12635e-17
7259.99669 1.11310e-17
7262.00149 1.07549e-17
7263.99595 1.05570e-17
7266.00074 1.05557e-17
7267.99521 1.07324e-17
7270.00000 1.09278e-17
7271.99446 1.09546e-17
7273.99926 1.09158e-17
7276.00406 1.08397e-17
7277.99852 1.07261e-17
7280.00331 1.05657e-17
7281.99778 1.05458e-17
7284.00257 1.06755e-17
7285.99703 1.06368e-17
7288.00183 1.05981e-17
7289.99629 1.05688e-17
7292.00109 1.05115e-17
7293.99555 1.04261e-17
7296.00035 1.03594e-17
7297.99481 1.03488e-17
7299.99960 1.03196e-17
7302.00440 1.03744e-17
7303.99886 1.05881e-17
7306.00366 1.05121e-17
7307.99812 1.02679e-17
7310.00292 1.01733e-17
7311.99738 1.02562e-17
7314.00217 1.02363e-17
7315.99664 1.03378e-17
7318.00143 1.04766e-17
7319.99589 1.04940e-17
7322.00069 1.05208e-17
7323.99515 1.05009e-17
7325.99995 1.03410e-17
7327.99441 1.00784e-17
7329.99921 9.81599e-18
7332.00400 9.68420e-18
7333.99846 9.67372e-18
7336.00326 9.70055e-18
7337.99772 9.90457e-18
7340.00252 1.03417e-17
7341.99698 1.06388e-17
7344.00178 1.06003e-17
7345.99624 1.05897e-17
7348.00103 1.05232e-17
7349.99550 1.03075e-17
7352.00029 1.02504e-17
7353.99475 1.03237e-17
7355.99955 1.03691e-17
7358.00435 1.03865e-17
7359.99881 1.03480e-17
7362.00360 1.01418e-17
7363.99807 9.93576e-18
7366.00286 9.99975e-18
7367.99732 1.01661e-17
7370.00212 1.01928e-17
7371.99658 1.01265e-17
7374.00138 1.02369e-17
7375.99584 1.03101e-17
7378.00064 1.01228e-17
7379.99510 9.99136e-18
7381.99989 9.90644e-18
7384.00469 9.87735e-18
7385.99915 9.88546e-18
7388.00395 9.94936e-18
7389.99841 9.94817e-18
7392.00321 9.83542e-18
7393.99767 9.79705e-18
7396.00246 9.88881e-18
7397.99693 1.00828e-17
7400.00172 1.03417e-17
7401.99618 1.04520e-17
7404.00098 1.05343e-17
7405.99544 1.05888e-17
7408.00024 1.03460e-17
7409.99470 9.94548e-18
7411.99950 9.82358e-18
7414.00429 9.89666e-18
7415.99875 9.93260e-18
7418.00355 9.91283e-18
7419.99801 9.84667e-18
7422.00281 9.73413e-18
7423.99727 9.61234e-18
7426.00207 9.53696e-18
7427.99653 9.50798e-18
7430.00132 9.51610e-18
7431.99579 9.52422e-18
7434.00058 9.47671e-18
7435.99504 9.42920e-18
7437.99984 9.56711e-18
7440.00464 9.63084e-18
7441.99910 9.63894e-18
7444.00389 9.63777e-18
7445.99836 9.59954e-18
7448.00315 9.56132e-18
7449.99761 9.59721e-18
7452.00241 9.71646e-18
7453.99687 9.84494e-18
7456.00167 9.96413e-18
7457.99613 9.96292e-18
7460.00093 9.90616e-18
7461.99539 9.91421e-18
7464.00018 9.87598e-18
7465.99465 9.81000e-18
7467.99944 9.87358e-18
7470.00424 9.81687e-18
7471.99870 9.69540e-18
7474.00350 9.65722e-18
7475.99796 9.71154e-18
7478.00275 9.71036e-18
7479.99722 9.61671e-18
7482.00201 9.77271e-18
7483.99647 9.93792e-18
7486.00127 9.83503e-18
7487.99573 9.75065e-18
7490.00053 9.83263e-18
7491.99499 9.90535e-18
7493.99979 9.78403e-18
7496.00458 9.70894e-18
7497.99904 9.65233e-18
7500.00384 9.54032e-18
7501.99830 9.32676e-18
7504.00310 9.19913e-18
7505.99756 9.23216e-18
7508.00236 9.38796e-18
7509.99682 9.46065e-18
7512.00161 9.49641e-18
7513.99608 9.58752e-18
7516.00087 9.59557e-18
7517.99533 9.44679e-18
7520.00013 9.16798e-18
7521.99459 9.07001e-18
7523.99939 9.23121e-18
7526.00418 9.47904e-18
7527.99865 9.57929e-18
7530.00344 9.67030e-18
7531.99790 9.76129e-18
7534.00270 9.79696e-18
7535.99716 9.77732e-18
7538.00196 9.74848e-18
7539.99642 9.77492e-18
7542.00122 9.71845e-18
7543.99568 9.62515e-18
7546.00047 9.69764e-18
7547.99494 9.84378e-18
7549.99973 9.85178e-18
7552.00453 9.74930e-18
7553.99899 9.62843e-18
7556.00379 9.43397e-18
7557.99825 9.31317e-18
7560.00304 9.26601e-18
7561.99751 9.20967e-18
7564.00230 9.15886e-18
7565.99676 9.13381e-18
7568.00156 9.15844e-18
7569.99602 9.26030e-18
7572.00082 9.29594e-18
7573.99528 9.34995e-18
7576.00008 9.38557e-18
7577.99454 9.26492e-18
7579.99933 9.06711e-18
7582.00413 9.15145e-18
7583.99859 9.57388e-18
7586.00339 9.95855e-18
7687.99997 9.22923e-18
7690.00476 9.05374e-18
7691.99923 8.72862e-18
7694.00402 8.75308e-18
7695.99848 8.98100e-18
7698.00328 9.08388e-18
7699.99774 9.12197e-18
7702.00254 9.22116e-18
7703.99700 9.46624e-18
7706.00180 9.60184e-18
7707.99626 9.37270e-18
7710.00105 9.11445e-18
7711.99552 8.89910e-18
7714.00031 8.57080e-18
7715.99477 8.50503e-18
7717.99957 8.93404e-18
7720.00437 9.21079e-18
7721.99883 9.15498e-18
7724.00362 9.27224e-18
7725.99809 9.35305e-18
7728.00288 9.31545e-18
7729.99734 9.28697e-18
7732.00214 9.32222e-18
7733.99660 9.25734e-18
7736.00140 9.16516e-18
7737.99586 9.13671e-18
7740.00066 8.93994e-18
7741.99512 8.78233e-18
7743.99991 8.71209e-18
7746.00471 8.67917e-18
7747.99917 8.82359e-18
7750.00397 9.36628e-18
7751.99843 9.53785e-18
7754.00323 9.49120e-18
7755.99769 9.39911e-18
7758.00248 9.26160e-18
7759.99695 9.10595e-18
7762.00174 9.01485e-18
7763.99620 8.93195e-18
7766.00100 8.89085e-18
7767.99546 8.86885e-18
7770.00026 8.77237e-18
7771.99472 8.73858e-18
7773.99952 8.70752e-18
7776.00431 8.63834e-18
7777.99877 8.56826e-18
7780.00357 8.70424e-18
7781.99803 8.78846e-18
7784.00283 8.61132e-18
7785.99729 8.50952e-18
7788.00209 8.36058e-18
7789.99655 8.40398e-18
7792.00134 8.73668e-18
7793.99581 9.12281e-18
7796.00060 9.29394e-18
7797.99506 9.26557e-18
7799.99986 9.21002e-18
7801.99432 9.10916e-18
7803.99912 9.02192e-18
7806.00391 9.04435e-18
7807.99838 9.01240e-18
7810.00317 9.04660e-18
7811.99763 9.23931e-18
7814.00243 9.29249e-18
7815.99689 9.29132e-18
7818.00169 9.23583e-18
7819.99615 9.17129e-18
7822.00095 9.06151e-18
7823.99541 8.90921e-18
7826.00020 8.74428e-18
7827.99467 8.61288e-18
7829.99946 8.46522e-18
7832.00426 8.39721e-18
7833.99872 8.41244e-18
7836.00352 8.44032e-18
7837.99798 8.48809e-18
7840.00277 8.56298e-18
7841.99724 8.62971e-18
7844.00203 8.68106e-18
7845.99649 8.79566e-18
7848.00129 8.99700e-18
7849.99575 9.14497e-18
7852.00055 9.20707e-18
7853.99501 9.23301e-18
7855.99981 9.30412e-18
7857.99427 9.45649e-18
7859.99906 9.47336e-18
7862.00386 9.37284e-18
7863.99832 9.28138e-18
7866.00312 9.22605e-18
7867.99758 9.11657e-18
7870.00238 8.83023e-18
7871.99684 8.33731e-18
7874.00163 8.20994e-18
7875.99610 8.32799e-18
7878.00089 8.49924e-18
7879.99535 8.77597e-18
7882.00015 9.07247e-18
7883.99461 9.29676e-18
7885.99941 9.49395e-18
7888.00420 9.56487e-18
7889.99867 9.58170e-18
7892.00346 9.37320e-18
7893.99792 8.82142e-18
7896.00272 8.45178e-18
7897.99718 8.38585e-18
7900.00198 8.47848e-18
7901.99644 8.77825e-18
7904.00124 9.54625e-18
7905.99570 9.81519e-18
7908.00049 9.74193e-18
7909.99496 9.56065e-18
7911.99975 9.29841e-18
7914.00455 9.04524e-18
7915.99901 8.91271e-18
7918.00381 8.82521e-18
7919.99827 8.74403e-18
7922.00306 8.62689e-18
7923.99753 8.65908e-18
7926.00232 8.88373e-18
7927.99678 9.13620e-18
7930.00158 9.30588e-18
7931.99604 9.51148e-18
7934.00084 9.36646e-18
7935.99530 8.70019e-18
7938.00010 8.42680e-18
7940.00489 8.61714e-18
7941.99935 8.87840e-18
7944.00415 8.88537e-18
7945.99861 8.79533e-18
7948.00341 8.84182e-18
7949.99787 9.03378e-18
7952.00267 9.05958e-18
7953.99713 9.00458e-18
7956.00192 8.89842e-18
7957.99639 8.67382e-18
7960.00118 8.39184e-18
7961.99564 8.42309e-18
7964.00044 8.89575e-18
7965.99490 8.86683e-18
7967.99970 8.32842e-18
7970.00449 8.00630e-18
7971.99896 8.18106e-18
7974.00375 8.52883e-18
7975.99821 8.57796e-18
7978.00301 8.52669e-18
7979.99747 8.52562e-18
7982.00227 8.56309e-18
7983.99673 8.48405e-18
7986.00153 8.31813e-18
7987.99599 8.12180e-18
7990.00078 7.97835e-18
7991.99525 7.87704e-18
7994.00004 8.09098e-18
7995.99450 8.78838e-18
7997.99930 9.11406e-18
8000.00410 9.18454e-18
8001.99856 9.18339e-18
8004.00335 9.06589e-18
8005.99782 8.83299e-18
8008.00261 8.77910e-18
8009.99707 8.91130e-18
8012.00187 8.89229e-18
8013.99633 8.71141e-18
8016.00113 8.52073e-18
8017.99559 8.50804e-18
8020.00039 8.64019e-18
8021.99485 8.62660e-18
8023.99964 8.44854e-18
8026.00444 8.40190e-18
8027.99890 8.40979e-18
8030.00370 8.48915e-18
8031.99816 8.67392e-18
8034.00296 8.86846e-18
8035.99742 8.87718e-18
8038.00221 8.75104e-18
8039.99668 8.69637e-18
8042.00147 8.65958e-18
8043.99593 8.59779e-18
8046.00073 8.47711e-18
8047.99519 8.38591e-18
8049.99999 8.44198e-18
8051.99445 8.62562e-18
8053.99925 8.66826e-18
8056.00404 8.59315e-18
8057.99850 8.60456e-18
8060.00330 8.73013e-18
8061.99776 8.82446e-18
8064.00256 8.77343e-18
8065.99702 8.62791e-18
8068.00182 8.60099e-18
8069.99628 8.64626e-18
8072.00107 8.66479e-18
8073.99554 8.72787e-18
8076.00033 8.74728e-18
8077.99479 8.56446e-18
8079.99959 8.29618e-18
8082.00439 8.35037e-18
8083.99885 8.72334e-18
8086.00364 8.82376e-18
8087.99811 8.77192e-18
8090.00290 8.73522e-18
8091.99736 8.71990e-18
8094.00216 8.70280e-18
8095.99662 8.70973e-18
8098.00142 8.77271e-18
8099.99588 8.79386e-18
8102.00068 8.79633e-18
8103.99514 8.78456e-18
8105.99993 8.77992e-18
8107.99440 8.77083e-18
8109.99919 8.72085e-18
8112.00399 8.63443e-18
8113.99845 8.58980e-18
8116.00325 8.52297e-18
8117.99771 8.55124e-18
8120.00250 8.76699e-18
8121.99697 8.90183e-18
8124.00176 8.78081e-18
8125.99622 8.52215e-18
8128.00102 8.45360e-18
8129.99548 8.51738e-18
8132.00028 8.54740e-18
8133.99474 8.64667e-18
8135.99954 8.60210e-18
8138.00433 8.29041e-18
8139.99879 7.86254e-18
8142.00359 7.82253e-18
8143.99805 8.07442e-18
8146.00285 8.32358e-18
8147.99731 8.81394e-18
8150.00211 9.09045e-18
8151.99657 9.06273e-18
8154.00136 8.91088e-18
8155.99583 8.78478e-18
8158.00062 8.62149e-18
8159.99508 8.47950e-18
8161.99988 8.31185e-18
8164.00468 8.18677e-18
8165.99914 8.10337e-18
8168.00393 8.11567e-18
8169.99840 8.31131e-18
8172.00319 8.66899e-18
8173.99765 8.58203e-18
8176.00245 7.98506e-18
8177.99691 7.74416e-18
8180.00171 7.73524e-18
8181.99617 7.87857e-18
8184.00097 8.14666e-18
8185.99543 8.43856e-18
8188.00022 8.16236e-18
8189.99469 7.04310e-18
8191.99948 6.80163e-18
8194.00428 7.15636e-18
8195.99874 7.67550e-18
8198.00354 8.35192e-18
8199.99800 9.04496e-18
8202.00279 9.15879e-18
8203.99726 8.67857e-18
8206.00205 8.56173e-18
8207.99651 8.53860e-18
8210.00131 8.55965e-18
8211.99577 8.62310e-18
8214.00057 8.73248e-18
8215.99503 8.76675e-18
8217.99983 8.74096e-18
8220.00462 8.61891e-18
8221.99908 8.34502e-18
8224.00388 8.14095e-18
8225.99834 7.90603e-18
8228.00314 7.80180e-18
8229.99760 8.01002e-18
8232.00240 8.47939e-18
8233.99686 8.70777e-18
8236.00165 8.90169e-18
8237.99612 8.93590e-18
8240.00091 8.74607e-18
8241.99537 8.55363e-18
8244.00017 8.49969e-18
8245.99463 8.52424e-18
8247.99943 8.54877e-18
8250.00422 8.62619e-18
8251.99869 8.66305e-18
8254.00348 8.67082e-18
8255.99794 8.68299e-18
8258.00274 8.74450e-18
8259.99720 8.78926e-18
8262.00200 8.64903e-18
8263.99646 8.28952e-18
8266.00126 8.12297e-18
8267.99572 8.06916e-18
8270.00051 7.99512e-18
8271.99498 7.84802e-18
8273.99977 7.77403e-18
8276.00457 7.88399e-18
8277.99903 8.13120e-18
8280.00383 8.29565e-18
8281.99829 8.55067e-18
8284.00308 8.57868e-18
8285.99755 8.28475e-18
8288.00234 8.06917e-18
8289.99680 8.23705e-18
8292.00160 8.67569e-18
8293.99606 8.83555e-18
8296.00086 8.91361e-18
8297.99532 8.83344e-18
8300.00012 8.55115e-18
8301.99458 8.33397e-18
8303.99937 8.28201e-18
8306.00417 8.34868e-18
8307.99863 8.43289e-18
8310.00343 8.58559e-18
8311.99789 8.61356e-18
8314.00269 8.54492e-18
8315.99715 8.50615e-18
8318.00194 8.44896e-18
8319.99641 8.41635e-18
8322.00120 8.53824e-18
8323.99566 8.89002e-18
8326.00046 8.84509e-18
8327.99492 8.43431e-18
8329.99972 8.14117e-18
8332.00451 7.86478e-18
8333.99898 7.67703e-18
8336.00377 7.87959e-18
8337.99823 8.46177e-18
8340.00303 8.48357e-18
8341.99749 7.81368e-18
8344.00229 7.82942e-18
8345.99675 8.73037e-18
8348.00155 9.49089e-18
8349.99601 9.38463e-18
8352.00080 8.82279e-18
8353.99527 8.59924e-18
8356.00006 8.44057e-18
8357.99452 8.25215e-18
8359.99932 8.04626e-18
8362.00412 7.96914e-18
8363.99858 8.05751e-18
8366.00337 8.24304e-18
8367.99784 8.29897e-18
8370.00263 8.25599e-18
8371.99709 8.25678e-18
8374.00189 8.31444e-18
8375.99635 8.27760e-18
8378.00115 8.02907e-18
8379.99561 7.80246e-18
8382.00041 7.96073e-18
8383.99487 8.42504e-18
8385.99966 8.73973e-18
8388.00446 9.32013e-18
8389.99892 9.38899e-18
8392.00372 8.55925e-18
8393.99818 7.65716e-18
8396.00298 7.62743e-18
8397.99744 8.18142e-18
8400.00223 8.47578e-18
8401.99670 8.98062e-18
8404.00149 9.01452e-18
8405.99595 8.59775e-18
8408.00075 8.25966e-18
8409.99521 8.07447e-18
8412.00001 7.95392e-18
8413.99447 8.11277e-18
8415.99927 8.78135e-18
8418.00406 8.90253e-18
8419.99852 8.53585e-18
8422.00332 8.21899e-18
8423.99778 8.19275e-18
8426.00258 8.32006e-18
8427.99704 8.42727e-18
8430.00184 8.66529e-18
8431.99630 8.64337e-18
8434.00109 8.41218e-18
8435.99556 8.18278e-18
8438.00035 7.91682e-18
8439.99481 7.64744e-18
8441.99961 7.44871e-18
8444.00441 7.24481e-18
8445.99887 7.41565e-18
8448.00366 8.07090e-18
8449.99813 8.48817e-18
8452.00292 8.72850e-18
8453.99738 8.87559e-18
8456.00218 8.92684e-18
8457.99664 8.78650e-18
8460.00144 8.68712e-18
8461.99590 8.50853e-18
8464.00070 8.44838e-18
8465.99516 8.42828e-18
8467.99995 8.43603e-18
8470.00475 8.41768e-18
8471.99921 8.31928e-18
8474.00401 8.15652e-18
8475.99847 7.87810e-18
8478.00327 7.75805e-18
8479.99773 7.79719e-18
8482.00252 7.74414e-18
8483.99699 7.48763e-18
8486.00178 7.14510e-18
8487.99624 7.04259e-18
8490.00104 7.14264e-18
8491.99550 7.32958e-18
8494.00030 7.80153e-18
8495.99476 8.03789e-18
8497.99956 7.98834e-18
8500.00435 7.80328e-18
8501.99881 7.81979e-18
8504.00361 8.00827e-18
8505.99807 8.09423e-18
8508.00287 8.17844e-18
8509.99733 8.20532e-18
8512.00213 8.11065e-18
8513.99659 7.98996e-18
8516.00138 7.98040e-18
8517.99585 8.03941e-18
8520.00064 7.98298e-18
8521.99510 7.79381e-18
8523.99990 7.73656e-18
8525.99436 7.75133e-18
8527.99916 7.78431e-18
8530.00395 7.91616e-18
8531.99842 8.09134e-18
8534.00321 8.10520e-18
8535.99767 7.98033e-18
8538.00247 8.01067e-18
8539.99693 8.17103e-18
8542.00173 8.24989e-18
8543.99619 8.25506e-18
8546.00099 8.17790e-18
8547.99545 8.02712e-18
8550.00024 7.77413e-18
8551.99471 7.68666e-18
8553.99950 7.75339e-18
8556.00430 7.75861e-18
8557.99876 7.64260e-18
8560.00356 7.51535e-18
8561.99802 7.53099e-18
8564.00281 7.62368e-18
8565.99728 7.69904e-18
8568.00207 7.82804e-18
8569.99653 7.90163e-18
8572.00133 7.88867e-18
8573.99579 7.85581e-18
8576.00059 7.86362e-18
8577.99505 7.87490e-18
8579.99985 7.89308e-18
8581.99431 7.93116e-18
8583.99910 7.97875e-18
8586.00390 8.02546e-18
8587.99836 7.99608e-18
8590.00316 7.93903e-18
8591.99762 7.88719e-18
8594.00242 7.87598e-18
8595.99688 7.87688e-18
8598.00167 7.96678e-18
8599.99614 8.23381e-18
8602.00093 8.35563e-18
8603.99539 8.22516e-18
8606.00019 8.00662e-18
8608.00499 8.00578e-18
8609.99945 8.16644e-18
8612.00424 8.21308e-18
8613.99871 8.29424e-18
8616.00350 8.22949e-18
8617.99796 7.90490e-18
8620.00276 7.54241e-18
8621.99722 7.41561e-18
8624.00202 7.43383e-18
8625.99648 7.43305e-18
8628.00128 7.50217e-18
8629.99574 7.52037e-18
8632.00053 7.52650e-18
8633.99500 7.52313e-18
8635.99979 7.43611e-18
8638.00459 7.27321e-18
8639.99905 7.31299e-18
8642.00385 7.58383e-18
8643.99831 7.69598e-18
8646.00310 7.70812e-18
8647.99757 7.68492e-18
8650.00236 7.61088e-18
8651.99682 7.49807e-18
8654.00162 7.48525e-18
8655.99608 7.50430e-18
8658.00088 7.54661e-18
8659.99534 7.53292e-18
8662.00014 7.73198e-18
8663.99460 8.27634e-18
8665.99939 8.82663e-18
8668.00419 8.86879e-18
8669.99865 8.55450e-18
8672.00345 8.27988e-18
8673.99791 7.78151e-18
8676.00271 7.47260e-18
8677.99717 7.37029e-18
8680.00196 7.36697e-18
8681.99643 7.37570e-18
8684.00122 7.42658e-18
8685.99568 7.44304e-18
8688.00048 7.46638e-18
8689.99494 7.44929e-18
8691.99974 7.39437e-18
8693.99420 7.33516e-18
8695.99900 7.23469e-18
8698.00379 7.08007e-18
8699.99825 7.07507e-18
8702.00305 7.21277e-18
8703.99751 7.34700e-18
8706.00231 7.58605e-18
8707.99677 7.65662e-18
8710.00157 7.46426e-18
8711.99603 7.18688e-18
8714.00082 7.15438e-18
8715.99529 7.34266e-18
8718.00008 7.35397e-18
8720.00488 7.19952e-18
8721.99934 7.17820e-18
8724.00414 7.43768e-18
8725.99860 7.74776e-18
8728.00339 7.79680e-18
8729.99786 7.71020e-18
8732.00265 7.63478e-18
8733.99711 7.46153e-18
8736.00191 7.35354e-18
8737.99637 7.35283e-18
8740.00117 7.40017e-18
8741.99563 7.44322e-18
8744.00043 7.48196e-18
8745.99489 7.54814e-18
8747.99968 7.75755e-18
8750.00448 7.73966e-18
8751.99894 7.51082e-18
8754.00374 7.07025e-18
8755.99820 6.31341e-18
8758.00300 5.34240e-18
8759.99746 5.26218e-18
8762.00225 6.07163e-18
8763.99672 6.52098e-18
8766.00151 6.98054e-18
8767.99597 7.21980e-18
8770.00077 7.20198e-18
8771.99523 7.09679e-18
8774.00003 7.13895e-18
8775.99449 7.25820e-18
8777.99929 7.43395e-18
8780.00408 7.77751e-18
8781.99854 7.94805e-18
8784.00334 8.00296e-18
8785.99780 7.93629e-18
8788.00260 7.70870e-18
8789.99706 7.27829e-18
8792.00186 7.10131e-18
8793.99632 7.03133e-18
8796.00111 7.08117e-18
8797.99558 7.26021e-18
8800.00037 7.43664e-18
8801.99483 7.59851e-18
8803.99963 7.78771e-18
8805.99409 7.79983e-18
8807.99889 7.64688e-18
8810.00368 7.50850e-18
8811.99815 7.14953e-18
8814.00294 7.06423e-18
8815.99740 7.58511e-18
8818.00220 8.40596e-18
8819.99666 8.71036e-18
8822.00146 8.76941e-18
8823.99592 8.64042e-18
8826.00072 8.08333e-18
8827.99518 7.75704e-18
8829.99997 7.85204e-18
8831.99444 8.14523e-18
8833.99923 8.19491e-18
8836.00403 8.16599e-18
8837.99849 8.01579e-18
8840.00329 7.64870e-18
8841.99775 7.37903e-18
8844.00254 7.24688e-18
8845.99701 7.20782e-18
8848.00180 7.17048e-18
8849.99626 7.14253e-18
8852.00106 7.19824e-18
8853.99552 7.33673e-18
8856.00032 7.48117e-18
8857.99478 7.71604e-18
8859.99958 7.91589e-18
8862.00437 7.90668e-18
8863.99883 7.69185e-18
8866.00363 7.79782e-18
8867.99809 8.33197e-18
8870.00289 8.43445e-18
8871.99735 8.03545e-18
8874.00215 7.71668e-18
8875.99661 7.55401e-18
8878.00140 7.26944e-18
8879.99587 7.52202e-18
8882.00066 8.62704e-18
8883.99512 8.85646e-18
8885.99992 8.36476e-18
8888.00472 8.10326e-18
8889.99918 8.18098e-18
8892.00397 8.23909e-18
8893.99844 7.97852e-18
8896.00323 7.45729e-18
8897.99769 7.31014e-18
8900.00249 7.45945e-18
8901.99695 7.47927e-18
8904.00175 7.51527e-18
8905.99621 7.50868e-18
8908.00101 7.28411e-18
8909.99547 6.89097e-18
8912.00026 6.50727e-18
8913.99473 5.63838e-18
8915.99952 5.67792e-18
8918.00432 6.77124e-18
8919.99878 7.93928e-18
8922.00358 8.59564e-18
8923.99804 8.83322e-18
8926.00283 8.70486e-18
8927.99730 7.87798e-18
8930.00209 7.60510e-18
8931.99655 7.57981e-18
8934.00135 7.59706e-18
8935.99581 7.64919e-18
8938.00061 7.67154e-18
8939.99507 7.66072e-18
8941.99987 7.60313e-18
8943.99433 7.89673e-18
8945.99912 8.56183e-18
8948.00392 9.18177e-18
8949.99838 9.75060e-18
8952.00318 9.99634e-18
8953.99764 1.00296e-17
8956.00244 9.96077e-18
8957.99690 9.56907e-18
8960.00169 8.60809e-18
8961.99616 8.07975e-18
8964.00095 7.89985e-18
8965.99541 7.62313e-18
8968.00021 7.14088e-18
8969.99467 6.57035e-18
8971.99947 6.42461e-18
8974.00426 6.70353e-18
8975.99873 6.82106e-18
8978.00352 6.87743e-18
8979.99798 6.94229e-18
8982.00278 6.99015e-18
8983.99724 7.03716e-18
8986.00204 7.42119e-18
8987.99650 8.42142e-18
8990.00130 8.69154e-18
8991.99576 8.40317e-18
8994.00055 7.96973e-18
8995.99502 7.38869e-18
8997.99981 6.77975e-18
9000.00461 6.90396e-18
9001.99907 7.91644e-18
9004.00387 8.26537e-18
9005.99833 8.41745e-18
9008.00312 8.32013e-18
9009.99759 7.93276e-18
9012.00238 7.50050e-18
9013.99684 7.35155e-18
9016.00164 7.42139e-18
9017.99610 7.41068e-18
9020.00090 7.40760e-18
9021.99536 7.38671e-18
9024.00016 7.44722e-18
9025.99462 7.50771e-18
9027.99941 7.42156e-18
9030.00421 7.26424e-18
9031.99867 7.25864e-18
9034.00347 7.40811e-18
9035.99793 7.41013e-18
9038.00273 7.38164e-18
9039.99719 7.37858e-18
9042.00198 7.29927e-18
9043.99645 7.18863e-18
9046.00124 7.17542e-18
9047.99570 7.21388e-18
9050.00050 7.21592e-18
9051.99496 7.24591e-18
9053.99976 7.26996e-18
9055.99422 7.20765e-18
9057.99902 7.10978e-18
9060.00381 7.08051e-18
9061.99827 7.12489e-18
9064.00307 7.02282e-18
9065.99753 6.69222e-18
9068.00233 6.56819e-18
9069.99679 6.71163e-18
9072.00159 7.00907e-18
9073.99605 7.35895e-18
9076.00084 7.91778e-18
9077.99531 7.94179e-18
9080.00010 7.39639e-18
9081.99456 7.11164e-18
9083.99936 7.05195e-18
9086.00416 7.09970e-18
9087.99862 7.25825e-18
9090.00341 7.54027e-18
9091.99788 7.63285e-18
9094.00267 7.63740e-18
9095.99713 7.57684e-18
9098.00193 7.37593e-18
9099.99639 7.23170e-18
9102.00119 7.17626e-18
9103.99565 7.12335e-18
9106.00045 7.10257e-18
9107.99491 7.21787e-18
9109.99970 7.10159e-18
9112.00450 6.67942e-18
9113.99896 6.44573e-18
9116.00376 6.49176e-18
9117.99822 6.66114e-18
9120.00302 6.82880e-18
9121.99748 7.07332e-18
9124.00227 7.17167e-18
9125.99674 7.14414e-18
9128.00153 7.15041e-18
9129.99599 7.19384e-18
9132.00079 7.22881e-18
9133.99525 7.20130e-18
9136.00005 7.10877e-18
9138.00484 7.02638e-18
9139.99931 6.89673e-18
9142.00410 6.84645e-18
9143.99856 6.85611e-18
9146.00336 6.84636e-18
9147.99782 6.76234e-18
9150.00262 6.65638e-18
9151.99708 6.76057e-18
9154.00188 7.11875e-18
9155.99634 7.30306e-18
9158.00113 7.42828e-18
9159.99560 7.44971e-18
9162.00039 7.33109e-18
9163.99485 7.15935e-18
9165.99965 7.21032e-18
9168.00445 7.48395e-18
9169.99891 7.55429e-18
9172.00370 7.53017e-18
9173.99817 7.47653e-18
9176.00296 7.34617e-18
9177.99742 7.15512e-18
9180.00222 7.00287e-18
9181.99668 6.83379e-18
9184.00148 6.68749e-18
9185.99594 6.51677e-18
9188.00074 6.44299e-18
9189.99520 6.44509e-18
9191.99999 6.50112e-18
9193.99446 6.59928e-18
9195.99925 6.76147e-18
9198.00405 6.77281e-18
9199.99851 6.64092e-18
9202.00331 6.55959e-18
9203.99777 6.52461e-18
9206.00256 6.51238e-18
9207.99703 6.45467e-18
9210.00182 6.34053e-18
9211.99628 6.35021e-18
9214.00108 6.43653e-18
9215.99554 6.57757e-18
9218.00034 6.84490e-18
9219.99480 7.04315e-18
9221.99960 7.09403e-18
9224.00439 7.05904e-18
9225.99885 6.99291e-18
9228.00365 6.85187e-18
9229.99811 6.76893e-18
9232.00291 6.68937e-18
9233.99737 6.63674e-18
9236.00217 6.65734e-18
9237.99663 6.74104e-18
9240.00142 6.84072e-18
9241.99589 7.02032e-18
9244.00068 6.91890e-18
9245.99514 6.39266e-18
9247.99994 6.22568e-18
9250.00474 6.53144e-18
9251.99920 6.91791e-18
9254.00399 7.03687e-18
9255.99846 7.04902e-18
9258.00325 7.06538e-18
9259.99771 7.06827e-18
9262.00251 6.98120e-18
9263.99697 6.79241e-18
9266.00177 6.60954e-18
9267.99623 6.48805e-18
9270.00103 6.41869e-18
9271.99549 6.35103e-18
9274.00028 6.27497e-18
9275.99475 6.27203e-18
9277.99954 6.39432e-18
9280.00434 6.43003e-18
9281.99880 6.31785e-18
9284.00360 6.18973e-18
9285.99806 6.25569e-18
9288.00285 6.39978e-18
9289.99732 6.64885e-18
9292.00211 6.85673e-18
9293.99657 7.46354e-18
9296.00137 8.70942e-18
9297.99583 1.00525e-17
9300.00063 1.04298e-17
9301.99509 9.77413e-18
9303.99989 9.91623e-18
9305.99435 1.12170e-17
9307.99914 1.08720e-17
9310.00394 8.16733e-18
9311.99840 5.65355e-18
9314.00320 4.84403e-18
9315.99766 4.72956e-18
9318.00246 5.47452e-18
9319.99692 8.41728e-18
9322.00171 9.20554e-18
9323.99618 7.83301e-18
9326.00097 6.49758e-18
9327.99543 6.15485e-18
9330.00023 6.13096e-18
9331.99469 6.07436e-18
9333.99949 6.15701e-18
9335.99395 6.30088e-18
9337.99875 6.65525e-18
9340.00354 6.83765e-18
9341.99800 6.65691e-18
9344.00280 6.36214e-18
9345.99726 6.41204e-18
9348.00206 6.77133e-18
9349.99652 6.82287e-18
9352.00132 6.63883e-18
9353.99578 6.55877e-18
9356.00057 6.66899e-18
9357.99504 6.76998e-18
9359.99983 6.70501e-18
9362.00463 6.45233e-18
9363.99909 6.30274e-18
9366.00389 6.09285e-18
9367.99835 6.14860e-18
9370.00314 6.71962e-18
9371.99761 6.67479e-18
9374.00240 5.07174e-18
9375.99686 2.41676e-18
9378.00166 1.59404e-18
9379.99612 1.84437e-18
9382.00092 2.36939e-18
9383.99538 3.79464e-18
9386.00018 5.04133e-18
9387.99464 5.70002e-18
9389.99943 6.06138e-18
9392.00423 6.16733e-18
9393.99869 5.85214e-18
9396.00349 5.67513e-18
9397.99795 5.27547e-18
9400.00275 5.20901e-18
9401.99721 5.76445e-18
9404.00200 6.52487e-18
9405.99647 6.84582e-18
9408.00126 7.09812e-18
9409.99572 6.84830e-18
9412.00052 5.91909e-18
9413.99498 5.23347e-18
9415.99978 4.66255e-18
9418.00457 4.28496e-18
9419.99904 4.38173e-18
9422.00383 4.86410e-18
9423.99829 5.70021e-18
9426.00309 6.93266e-18
9427.99755 8.47188e-18
9430.00235 1.09467e-17
9431.99681 1.26686e-17
9434.00161 1.28936e-17
9435.99607 1.21570e-17
9438.00086 1.02751e-17
9439.99533 5.85368e-18
9442.00012 3.69405e-18
9443.99458 2.94904e-18
9445.99938 2.93882e-18
9448.00418 3.50029e-18
9449.99864 4.61495e-18
9452.00343 5.07512e-18
9453.99790 4.82411e-18
9456.00269 5.48141e-18
9457.99715 7.36519e-18
9460.00195 8.33555e-18
9461.99641 8.12033e-18
9464.00121 7.03300e-18
9465.99567 4.90083e-18
9468.00047 9.93970e-19
9469.99493 -5.77970e-19
9471.99972 -1.36716e-18
9473.99419 -5.25035e-19
9475.99898 2.69558e-18
9478.00378 6.26924e-18
9479.99824 8.32869e-18
9482.00304 9.62645e-18
9483.99750 9.69265e-18
9486.00229 7.57666e-18
9487.99676 6.91507e-18
9490.00155 7.15753e-18
9491.99601 7.69544e-18
9494.00081 8.57129e-18
9495.99527 9.82257e-18
9498.00007 1.01391e-17
9500.00486 1.00967e-17
9501.99933 9.33680e-18
9504.00412 7.30045e-18
9505.99858 5.54132e-18
9508.00338 4.77766e-18
9509.99784 4.63221e-18
9512.00264 4.62859e-18
9513.99710 5.16045e-18
9516.00190 5.31943e-18
9517.99636 5.21319e-18
9520.00115 5.29710e-18
9521.99562 5.71704e-18
9524.00041 6.20198e-18
9525.99487 6.56429e-18
9527.99967 6.97074e-18
9530.00447 7.09703e-18
9531.99893 6.87736e-18
9534.00372 6.81525e-18
9535.99819 6.92819e-18
9538.00298 7.04696e-18
9539.99744 7.01986e-18
9542.00224 6.89359e-18
9543.99670 6.76984e-18
9546.00150 6.68110e-18
9547.99596 6.40573e-18
9550.00076 5.86295e-18
9551.99522 5.44271e-18
9554.00001 5.22328e-18
9555.99448 5.21547e-18
9557.99927 5.99563e-18
9560.00407 8.35406e-18
9561.99853 8.86159e-18
9564.00333 7.93998e-18
9565.99779 6.65955e-18
9568.00258 5.29184e-18
9569.99705 4.06585e-18
9572.00184 4.04146e-18
9573.99630 5.52982e-18
9576.00110 5.75759e-18
9577.99556 5.08462e-18
9580.00036 4.82877e-18
9581.99482 5.42694e-18
9583.99962 6.27223e-18
9585.99408 6.49573e-18
9587.99887 6.30975e-18
9590.00367 6.22033e-18
9591.99813 5.88296e-18
9594.00293 5.89092e-18
9595.99739 6.38478e-18
9598.00219 6.85029e-18
9599.99665 6.86901e-18
9602.00144 6.66313e-18
9603.99591 6.64859e-18
9606.00070 6.78127e-18
9607.99516 6.71183e-18
9609.99996 6.53595e-18
9611.99442 6.30354e-18
9613.99922 5.88240e-18
9616.00401 5.34822e-18
9617.99848 5.39197e-18
9620.00327 6.15404e-18
9621.99773 6.29667e-18
9624.00253 5.95296e-18
9625.99699 5.70905e-18
9628.00179 5.78684e-18
9629.99625 5.88790e-18
9632.00105 5.70470e-18
9633.99551 5.39521e-18
9636.00030 5.08825e-18
9637.99477 4.48800e-18
9639.99956 4.28333e-18
9642.00436 4.74087e-18
9643.99882 5.44512e-18
9646.00362 5.87845e-18
9647.99808 6.30592e-18
9650.00287 6.43346e-18
9651.99734 6.24869e-18
9654.00213 6.09300e-18
9655.99659 5.90578e-18
9658.00139 5.60812e-18
9659.99585 5.25818e-18
9662.00065 4.84518e-18
9663.99511 4.96861e-18
9665.99991 5.88078e-18
9668.00470 6.13199e-18
9669.99916 5.63104e-18
9672.00396 5.22312e-18
9673.99842 5.49839e-18
9676.00322 6.19695e-18
9677.99768 6.46798e-18
9680.00248 6.58877e-18
9681.99694 6.36847e-18
9684.00173 5.46524e-18
9685.99620 5.11807e-18
9688.00099 5.76828e-18
9689.99545 6.64492e-18
9692.00025 6.51344e-18
9693.99471 5.57646e-18
9695.99951 5.17215e-18
9698.00430 4.79360e-18
9699.99877 4.71204e-18
9702.00356 5.15134e-18
9703.99802 5.67186e-18
9706.00282 5.59358e-18
9707.99728 5.05259e-18
9710.00208 4.65428e-18
9711.99654 3.91689e-18
9714.00134 3.73758e-18
9715.99580 4.12370e-18
9718.00059 4.95992e-18
9719.99506 5.95852e-18
9721.99985 7.02415e-18
9723.99431 7.10000e-18
9725.99911 6.05694e-18
9728.00391 5.61154e-18
9729.99837 5.36178e-18
9732.00316 5.37058e-18
9733.99763 5.74397e-18
9736.00242 6.27724e-18
9737.99688 6.16834e-18
9740.00168 5.43064e-18
9741.99614 5.16109e-18
9744.00094 5.18730e-18
9745.99540 5.10003e-18
9748.00020 4.73694e-18
9750.00499 4.34243e-18
9751.99945 4.32976e-18
9754.00425 4.61356e-18
9755.99871 4.82280e-18
9758.00351 5.13883e-18
9759.99797 5.37369e-18
9762.00277 5.47853e-18
9763.99723 5.54527e-18
9766.00202 5.68983e-18
9767.99649 5.87410e-18
9770.00128 5.82989e-18
9771.99574 5.41322e-18
9774.00054 5.38146e-18
9775.99500 5.71965e-18
9777.99980 6.09172e-18
9780.00459 6.27177e-18
9781.99906 6.19446e-18
9784.00385 6.16266e-18
9785.99831 6.19044e-18
9788.00311 6.01221e-18
9789.99757 5.41291e-18
9792.00237 5.16195e-18
9793.99683 5.29732e-18
9796.00163 5.47320e-18
9797.99609 5.65319e-18
9800.00088 6.19458e-18
9801.99535 5.90147e-18
9804.00014 4.53501e-18
9805.99460 3.82858e-18
9807.99940 4.05822e-18
9810.00420 4.56483e-18
9811.99866 4.71918e-18
9814.00345 4.80241e-18
9815.99792 4.96912e-18
9818.00271 5.22592e-18
9819.99717 5.36118e-18
9822.00197 5.48238e-18
9823.99643 5.50025e-18
9826.00123 5.29168e-18
9827.99569 4.92942e-18
9830.00049 4.68289e-18
9831.99495 4.41738e-18
9833.99974 4.26924e-18
9835.99421 4.08393e-18
9837.99900 4.04404e-18
9840.00380 4.52709e-18
9841.99826 5.39337e-18
9844.00306 6.19018e-18
9845.99752 7.31645e-18
9848.00231 8.03790e-18
9849.99678 8.60565e-18
9852.00157 8.70427e-18
9853.99603 8.04645e-18
9856.00083 7.09392e-18
9857.99529 6.92591e-18
9860.00009 7.15340e-18
9861.99455 7.47746e-18
9863.99935 8.61878e-18
9865.99381 8.70085e-18
9867.99860 7.28057e-18
9870.00340 5.68464e-18
9871.99786 5.18910e-18
9874.00266 5.42815e-18
9875.99712 5.42042e-18
9878.00192 5.58929e-18
9879.99638 5.56010e-18
9882.00117 5.31802e-18
9883.99564 5.01822e-18
9886.00043 4.92471e-18
9887.99489 5.01931e-18
9889.99969 5.16257e-18
9892.00449 5.55329e-18
9893.99895 5.62474e-18
9896.00374 5.61618e-18
9897.99821 5.47401e-18
9900.00300 4.65805e-18
9901.99746 3.33748e-18
9904.00226 3.53933e-18
9905.99672 5.24769e-18
9908.00152 6.08348e-18
9909.99598 6.81035e-18
9912.00078 7.06968e-18
9913.99524 6.39492e-18
9916.00003 5.35835e-18
9917.99450 5.35475e-18
9919.99929 6.15070e-18
9922.00409 6.21465e-18
9923.99855 5.73299e-18
9926.00335 5.60328e-18
9927.99781 5.79664e-18
9930.00260 6.20257e-18
9931.99707 6.56808e-18
9934.00186 6.88165e-18
9935.99632 6.76345e-18
9938.00112 5.98206e-18
9939.99558 5.71564e-18
9942.00038 5.96987e-18
9943.99484 6.35587e-18
9945.99964 6.60263e-18
9948.00443 6.89466e-18
9949.99889 6.76662e-18
9952.00369 6.30589e-18
9953.99815 5.72662e-18
9956.00295 4.59077e-18
9957.99741 3.86674e-18
9960.00221 4.29714e-18
9961.99667 5.22068e-18
9964.00146 5.26485e-18
9965.99593 4.71135e-18
9968.00072 4.75966e-18
9969.99518 5.35700e-18
9971.99998 5.52545e-18
9973.99444 4.93502e-18
9975.99924 4.18417e-18
9978.00403 4.40449e-18
9979.99850 5.57362e-18
9982.00329 5.79302e-18
9983.99775 5.53681e-18
9986.00255 5.11771e-18
9987.99701 4.44361e-18
9990.00181 3.78028e-18
9991.99627 3.35147e-18
9994.00107 2.90873e-18
9995.99553 2.65605e-18
9998.00032 2.12374e-18
9999.99479 2.70758e-18
