# wavelength flux
4069.48190 1.18026e-17
4071.33020 1.36608e-17
4073.16840 -3.23430e-18
4075.00660 4.40480e-18
4076.85490 1.38777e-17
4078.69310 5.38997e-18
4080.53130 5.95079e-18
4082.36950 1.09304e-17
4084.21780 2.09706e-17
4086.05600 1.06624e-17
4087.89420 7.24016e-19
4089.74250 1.55887e-18
4091.58070 1.11250e-17
4093.41890 7.34898e-18
4095.25710 6.03355e-18
4097.10540 1.13763e-18
4098.94360 1.08799e-17
4100.78180 1.00587e-17
4102.62000 -1.48709e-18
4104.46830 -9.55630e-18
4106.30650 -2.53416e-18
4108.14470 1.12033e-17
4109.99300 -4.34582e-18
4111.83120 2.02294e-18
4113.66940 -3.52668e-18
4115.50760 8.90264e-18
4117.35590 8.36021e-18
4119.19410 3.96715e-18
4121.03230 -1.76085e-18
4122.87050 2.46933e-18
4124.71880 7.32679e-18
4126.55700 6.10915e-18
4128.39520 -1.61348e-19
4130.24350 5.67370e-18
4132.08170 6.43733e-18
4133.91990 2.20130e-18
4135.75810 -1.08468e-17
4137.60640 5.56629e-19
4139.44460 9.34181e-18
4141.28280 7.82001e-18
4143.12100 1.02681e-17
4144.96930 1.02692e-17
4146.80750 7.39613e-18
4148.64570 1.17246e-17
4150.49400 8.03256e-18
4152.33220 1.16601e-17
4154.17040 4.29333e-18
4156.00860 1.33841e-17
4157.85690 1.35678e-17
4159.69510 1.11929e-17
4161.53330 1.11998e-17
4163.38160 6.57918e-18
4165.21980 1.94764e-18
4167.05800 1.03960e-17
4168.89620 8.06554e-18
4170.74450 4.10482e-18
4172.58270 3.28878e-18
4174.42090 1.10658e-17
4176.25910 1.74383e-17
4178.10740 1.26791e-17
4179.94560 6.25666e-18
4181.78380 7.11225e-18
4183.63210 4.63949e-18
4185.47030 3.44090e-18
4187.30850 -1.14409e-18
4189.14670 5.19812e-18
4190.99500 1.67212e-17
4192.83320 4.72398e-18
4194.67140 7.92217e-18
4196.50960 3.98306e-18
4198.35790 -1.48917e-18
4200.19610 7.86871e-18
4202.03430 1.13699e-17
4203.88260 1.14838e-17
4205.72080 9.71018e-18
4207.55900 5.32999e-18
4209.39720 1.14228e-17
4211.24550 7.99492e-18
4213.08370 7.78254e-18
4214.92190 1.42451e-17
4216.77020 7.68081e-18
4218.60840 4.85716e-18
4220.44660 9.33667e-18
4222.28480 9.07715e-18
4224.13310 3.49208e-18
4225.97130 6.05163e-18
4227.80950 5.45125e-18
4229.64770 1.88868e-18
4231.49600 5.05225e-18
4233.33420 1.06930e-17
4235.17240 1.30958e-17
4237.02070 1.18089e-17
4238.85890 1.04349e-17
4240.69710 1.54444e-18
4242.53530 -4.97974e-18
4244.38360 2.26091e-18
4246.22180 1.14585e-17
4248.06000 1.18321e-17
4249.90830 6.36146e-18
4251.74650 7.22378e-18
4253.58470 1.01853e-17
4255.42290 6.39513e-18
4257.27120 7.22222e-18
4259.10940 -5.54289e-19
4260.94760 4.37415e-18
4262.78580 3.38923e-18
4264.63410 4.64115e-18
4266.47230 5.71479e-18
4268.31050 3.93121e-18
4270.15880 5.99268e-18
4271.99700 2.40517e-18
4273.83520 1.20477e-17
4275.67340 1.14602e-17
4277.52170 8.43543e-18
4279.35990 5.31187e-18
4281.19810 9.86553e-18
4283.03630 1.04342e-17
4284.88460 7.12326e-18
4286.72280 8.46918e-18
4288.56100 1.01119e-17
4290.40930 2.62422e-18
4292.24750 5.80028e-18
4294.08570 9.59458e-18
4295.92390 9.56705e-18
4297.77220 1.03377e-17
4299.61040 1.03164e-17
4301.44860 5.10373e-18
4303.28680 1.18529e-17
4305.13510 1.02147e-17
4306.97330 9.62272e-18
4308.81150 1.04842e-17
4310.65980 8.33819e-18
4312.49800 1.11701e-17
4314.33620 1.16206e-17
4316.17440 4.71840e-18
4318.02270 7.26447e-18
4319.86090 6.06154e-18
4321.69910 1.27735e-17
4323.54740 7.70022e-18
4325.38560 8.50567e-18
4327.22380 8.31362e-18
4329.06200 4.09332e-18
4330.91030 5.74849e-18
4332.74850 1.13274e-17
4334.58670 6.46937e-18
4336.42490 6.56125e-18
4338.27320 6.48871e-18
4340.11140 7.16850e-18
4341.94960 4.10330e-18
4343.79790 7.69567e-18
4345.63610 7.96716e-18
4347.47430 7.47728e-18
4349.31250 7.62831e-18
4351.16080 8.44139e-18
4352.99900 5.95829e-18
4354.83720 5.65793e-18
4356.67540 7.88723e-18
4358.52370 8.69559e-18
4360.36190 5.22905e-18
4362.20010 9.13758e-18
4364.04840 7.82801e-18
4365.88660 9.26411e-18
4367.72480 5.96058e-18
4369.56300 7.78370e-18
4371.41130 9.79349e-18
4373.24950 9.71799e-18
4375.08770 8.74015e-18
4376.93600 8.71247e-18
4378.77420 8.68480e-18
4380.61240 8.65714e-18
4382.45060 8.62948e-18
4384.29890 8.60183e-18
4386.13710 8.57419e-18
4387.97530 8.54655e-18
4389.81350 8.51892e-18
4391.66180 8.49130e-18
4393.50000 8.46368e-18
4395.33820 8.43607e-18
4397.18650 8.40847e-18
4399.02470 8.38087e-18
4400.86290 8.35328e-18
4402.70110 8.32570e-18
4404.54940 8.29812e-18
4406.38760 8.27055e-18
4408.22580 8.24299e-18
4410.06400 8.21543e-18
4411.91230 8.18788e-18
4413.75050 8.16034e-18
4415.58870 8.13280e-18
4417.43700 8.10527e-18
4419.27520 8.07775e-18
4421.11340 8.05023e-18
4422.95160 8.02272e-18
4424.79990 7.99522e-18
4426.63810 7.96772e-18
4428.47630 7.94023e-18
4430.31450 7.91276e-18
4432.16280 7.88528e-18
4434.00100 7.85781e-18
4435.83920 7.83035e-18
4437.68750 7.80289e-18
4439.52570 9.00842e-18
4441.36390 1.04153e-17
4443.20210 8.25369e-18
4445.05040 1.09758e-17
4446.88860 1.15857e-17
4448.72680 1.02164e-17
4450.57510 9.09435e-18
4452.41330 1.16153e-17
4454.25150 1.05677e-17
4456.08970 9.31074e-18
4457.93800 8.08837e-18
4459.77620 9.35260e-18
4461.61440 9.93061e-18
4463.45260 1.11551e-17
4465.30090 1.00558e-17
4467.13910 9.26122e-18
4468.97730 1.02809e-17
4470.82560 1.27718e-17
4472.66380 1.13539e-17
4474.50200 1.09197e-17
4476.34020 1.06796e-17
4478.18850 1.21673e-17
4480.02670 1.30998e-17
4481.86490 1.22872e-17
4483.70310 1.12394e-17
4485.55140 1.24738e-17
4487.38960 9.07711e-18
4489.22780 9.00659e-18
4491.07610 1.29779e-17
4492.91430 1.16529e-17
4494.75250 1.20142e-17
4496.59070 8.21383e-18
4498.43900 7.02131e-18
4500.27720 9.52488e-18
4502.11540 1.16213e-17
4503.96370 8.72882e-18
4505.80190 9.77350e-18
4507.64010 1.07770e-17
4509.47830 1.19731e-17
4511.32660 1.23101e-17
4513.16480 9.04010e-18
4515.00300 9.77742e-18
4516.84120 1.02666e-17
4518.68950 1.11152e-17
4520.52770 1.16039e-17
4522.36590 1.10702e-17
4524.21420 1.16594e-17
4526.05240 1.26768e-17
4527.89060 1.17611e-17
4529.72880 1.18449e-17
4531.57710 1.02373e-17
4533.41530 9.89048e-18
4535.25350 1.21230e-17
4537.09170 1.27212e-17
4538.94000 9.55849e-18
4540.77820 8.34912e-18
4542.61640 8.48930e-18
4544.46470 9.80581e-18
4546.30290 1.21731e-17
4548.14110 1.11270e-17
4549.97930 1.19784e-17
4551.82760 9.15224e-18
4553.66580 1.25725e-17
4555.50400 1.11025e-17
4557.35230 1.09355e-17
4559.19050 9.26547e-18
4561.02870 1.28550e-17
4562.86690 1.00231e-17
4564.71520 1.14239e-17
4566.55340 1.03958e-17
4568.39160 9.45413e-18
4570.22980 1.13574e-17
4572.07810 1.12526e-17
4573.91630 1.07999e-17
4575.75450 1.07398e-17
4577.60280 1.19311e-17
4579.44100 1.09713e-17
4581.27920 1.32043e-17
4583.11740 1.28044e-17
4584.96570 1.12110e-17
4586.80390 1.08753e-17
4588.64210 1.09295e-17
4590.48030 1.10634e-17
4592.32860 1.18420e-17
4594.16680 1.14611e-17
4596.00500 1.22085e-17
4597.85330 1.22850e-17
4599.69150 1.06126e-17
4601.52970 1.20858e-17
4603.36790 1.15197e-17
4605.21620 1.12445e-17
4607.05440 9.59381e-18
4608.89260 1.02607e-17
4610.73080 1.05923e-17
4612.57910 1.12936e-17
4614.41730 1.10140e-17
4616.25550 1.14501e-17
4618.10380 1.33617e-17
4619.94200 1.06995e-17
4621.78020 1.04672e-17
4623.61840 9.43979e-18
4625.46670 9.75541e-18
4627.30490 9.57747e-18
4629.14310 9.30905e-18
4630.99140 9.15579e-18
4632.82960 8.51942e-18
4634.66780 1.10646e-17
4636.50600 1.13727e-17
4638.35430 1.10440e-17
4640.19250 9.16796e-18
4642.03070 1.12115e-17
4643.86890 1.07764e-17
4645.71720 9.36144e-18
4647.55540 9.41996e-18
4649.39360 9.30725e-18
4651.24190 9.42910e-18
4653.08010 1.05977e-17
4654.91830 1.10572e-17
4656.75650 1.02328e-17
4658.60480 1.03143e-17
4660.44300 1.07591e-17
4662.28120 1.16678e-17
4664.12950 1.19864e-17
4665.96770 1.10384e-17
4667.80590 1.00517e-17
4669.64410 9.65969e-18
4671.49240 1.06343e-17
4673.33060 1.09489e-17
4675.16880 9.76344e-18
4677.00700 1.02884e-17
4678.85530 1.02298e-17
4680.69350 1.06840e-17
4682.53170 1.16605e-17
4684.38000 1.10670e-17
4686.21820 1.14938e-17
4688.05640 1.08688e-17
4689.89460 1.04107e-17
4691.74290 9.38404e-18
4693.58110 9.53487e-18
4695.41930 1.03839e-17
4697.25750 1.01623e-17
4699.10580 9.22764e-18
4700.94400 9.40948e-18
4702.78220 1.10986e-17
4704.63050 1.03055e-17
4706.46870 9.76008e-18
4708.30690 9.10863e-18
4710.14510 1.04397e-17
4711.99340 1.01358e-17
4713.83160 1.06472e-17
4715.66980 9.05248e-18
4717.50800 1.00272e-17
4719.35630 9.23660e-18
4721.19450 1.00296e-17
4723.03270 1.12142e-17
4724.88100 1.04249e-17
4726.71920 1.02423e-17
4728.55740 1.06859e-17
4730.39560 9.61305e-18
4732.24390 1.10886e-17
4734.08210 1.07105e-17
4735.92030 9.88614e-18
4737.75850 1.08348e-17
4739.60680 1.11585e-17
4741.44500 1.00960e-17
4743.28320 9.55753e-18
4745.13150 9.92653e-18
4746.96970 1.04990e-17
4748.80790 9.05316e-18
4750.64610 1.04994e-17
4752.49440 1.20906e-17
4754.33260 1.09981e-17
4756.17080 1.15102e-17
4758.01910 1.09423e-17
4759.85730 9.62106e-18
4761.69550 1.06582e-17
4763.53370 1.01552e-17
4765.38200 9.63379e-18
4767.22020 9.87615e-18
4769.05840 1.00785e-17
4770.89660 9.98376e-18
4772.74490 1.04374e-17
4774.58310 9.67430e-18
4776.42130 9.20459e-18
4778.26960 1.04431e-17
4780.10780 9.90182e-18
4781.94600 8.51078e-18
4783.78420 9.15643e-18
4785.63250 9.52686e-18
4787.47070 9.79380e-18
4789.30890 9.45597e-18
4791.15720 1.02180e-17
4792.99540 9.87622e-18
4794.83360 8.92198e-18
4796.67180 9.22976e-18
4798.52010 9.06133e-18
4800.35830 8.87814e-18
4802.19650 9.75989e-18
4804.03470 9.44998e-18
4805.88300 8.85552e-18
4807.72120 8.92484e-18
4809.55940 1.00081e-17
4811.40770 1.00966e-17
4813.24590 9.85650e-18
4815.08410 9.65942e-18
4816.92230 9.14790e-18
4818.77060 1.00326e-17
4820.60880 9.55937e-18
4822.44700 9.50894e-18
4824.28520 1.06629e-17
4826.13350 1.00254e-17
4827.97170 1.04177e-17
4829.80990 1.01434e-17
4831.65820 1.05362e-17
4833.49640 1.06879e-17
4835.33460 1.11053e-17
4837.17280 1.08260e-17
4839.02110 1.02722e-17
4840.85930 1.04242e-17
4842.69750 1.01748e-17
4844.53570 1.03866e-17
4846.38400 1.04237e-17
4848.22220 1.01438e-17
4850.06040 9.82094e-18
4851.90870 9.81286e-18
4853.74690 1.12024e-17
4855.58510 1.13630e-17
4857.42330 1.02433e-17
4859.27160 1.08172e-17
4861.10980 1.10772e-17
4862.94800 1.16862e-17
4864.79630 1.07417e-17
4866.63450 1.05638e-17
4868.47270 1.02904e-17
4870.31090 1.03120e-17
4872.15920 1.09682e-17
4873.99740 1.11264e-17
4875.83560 1.09535e-17
4877.67380 1.06334e-17
4879.52210 9.62791e-18
4881.36030 1.11802e-17
4883.19850 1.06151e-17
4885.04680 1.09072e-17
4886.88500 1.09832e-17
4888.72320 1.03473e-17
4890.56140 1.09464e-17
4892.40970 1.09538e-17
4894.24790 1.09612e-17
4896.08610 1.09686e-17
4897.93440 1.09759e-17
4899.77260 1.09833e-17
4901.61080 1.09907e-17
4903.44900 1.09980e-17
4905.29730 1.10054e-17
4907.13550 1.10128e-17
4908.97370 1.10201e-17
4910.81190 1.10275e-17
4912.66020 1.10348e-17
4914.49840 1.10422e-17
4916.33660 1.10495e-17
4918.17480 1.10569e-17
4920.02310 1.10642e-17
4921.86130 1.10715e-17
4923.69950 1.10789e-17
4925.54780 1.10862e-17
4927.38600 1.10936e-17
4929.22420 1.11009e-17
4931.06240 1.08457e-17
4932.91070 1.07577e-17
4934.74890 1.05383e-17
4936.58710 1.05881e-17
4938.43540 1.02401e-17
4940.27360 9.74709e-18
4942.11180 1.04211e-17
4943.95000 1.06566e-17
4945.79830 1.06609e-17
4947.63650 1.06352e-17
4949.47470 1.12672e-17
4951.31290 1.09472e-17
4953.16120 1.11198e-17
4954.99940 1.07897e-17
4956.83760 1.08151e-17
4958.68590 1.10779e-17
4960.52410 1.10107e-17
4962.36230 1.17084e-17
4964.20050 1.13467e-17
4966.04880 1.04238e-17
4967.88700 1.11446e-17
4969.72520 1.09088e-17
4971.56340 1.12194e-17
4973.41170 1.12045e-17
4975.24990 1.05027e-17
4977.08810 1.04422e-17
4978.93640 1.14745e-17
4980.77460 1.15901e-17
4982.61280 1.09702e-17
4984.45100 1.12867e-17
4986.29930 1.15281e-17
4988.13750 1.17929e-17
4989.97570 1.14373e-17
4991.82400 1.15183e-17
4993.66220 1.15992e-17
4995.50040 1.16800e-17
4997.33860 1.17609e-17
4999.18690 1.18417e-17
5001.02510 1.19225e-17
5002.86330 1.20033e-17
5004.70150 1.20840e-17
5006.54980 1.21648e-17
5008.38800 1.22455e-17
5010.22620 1.23261e-17
5012.07450 1.24068e-17
5013.91270 1.24874e-17
5015.75090 1.25680e-17
5017.58910 1.26486e-17
5019.43740 1.27291e-17
5021.27560 1.28097e-17
5023.11380 1.28901e-17
5024.96210 1.29706e-17
5026.80030 1.30511e-17
5028.63850 1.23092e-17
5030.47670 1.27174e-17
5032.32500 1.23046e-17
5034.16320 1.25980e-17
5036.00140 1.29711e-17
5037.83960 1.21570e-17
5039.68790 1.22762e-17
5041.52610 1.23955e-17
5043.36430 1.25146e-17
5045.20250 1.26338e-17
5047.05080 1.27529e-17
5048.88900 1.28720e-17
5050.72720 1.29910e-17
5052.57550 1.31100e-17
5054.41370 1.32290e-17
5056.25190 1.33479e-17
5058.09010 1.34668e-17
5059.93840 1.35857e-17
5061.77660 1.37045e-17
5063.61480 1.38233e-17
5065.46310 1.39421e-17
5067.30130 1.40607e-17
5069.13950 1.41795e-17
5070.97770 1.42981e-17
5072.82600 1.44167e-17
5074.66420 1.45353e-17
5076.50240 1.46538e-17
5078.34060 1.47917e-17
5080.18890 1.40774e-17
5082.02710 1.39333e-17
5083.86530 1.41092e-17
5085.71360 1.42752e-17
5087.55180 1.40747e-17
5089.39000 1.39759e-17
5091.22820 1.40132e-17
5093.07650 1.35041e-17
5094.91470 1.42765e-17
5096.75290 1.44211e-17
5098.60120 1.47490e-17
5100.43940 1.44210e-17
5102.27760 1.49679e-17
5104.11580 1.48726e-17
5105.96410 1.52641e-17
5107.80230 1.53158e-17
5109.64050 1.53405e-17
5111.47870 1.54700e-17
5113.32700 1.53898e-17
5115.16520 1.51566e-17
5117.00340 1.49974e-17
5118.85170 1.50245e-17
5120.68990 1.57139e-17
5122.52810 1.57315e-17
5124.36630 1.58040e-17
5126.21460 1.59628e-17
5128.05280 1.57562e-17
5129.89100 1.57752e-17
5131.72920 1.60182e-17
5133.57750 1.58188e-17
5135.41570 1.57127e-17
5137.25390 1.54209e-17
5139.10220 1.57566e-17
5140.94040 1.64567e-17
5142.77860 1.62613e-17
5144.61680 1.61711e-17
5146.46510 1.60680e-17
5148.30330 1.61664e-17
5150.14150 1.65095e-17
5151.98980 1.67287e-17
5153.82800 1.69074e-17
5155.66620 1.71476e-17
5157.50440 1.63164e-17
5159.35270 1.61331e-17
5161.19090 1.65516e-17
5163.02910 1.65403e-17
5164.86730 1.65095e-17
5166.71560 1.69984e-17
5168.55380 1.73935e-17
5170.39200 1.65443e-17
5172.24030 1.66412e-17
5174.07850 1.75765e-17
5175.91670 1.72310e-17
5177.75490 1.70128e-17
5179.60320 1.77265e-17
5181.44140 1.72729e-17
5183.27960 1.73512e-17
5185.11780 1.81617e-17
5186.96610 1.77460e-17
5188.80430 1.74709e-17
5190.64250 1.79722e-17
5192.49080 1.83752e-17
5194.32900 1.81173e-17
5196.16720 1.79304e-17
5198.00540 1.83743e-17
5199.85370 1.80183e-17
5201.69190 1.82461e-17
5203.53010 1.84540e-17
5205.36830 1.80384e-17
5207.21660 1.82092e-17
5209.05480 1.90816e-17
5210.89300 1.94648e-17
5212.74130 1.92753e-17
5214.57950 1.98506e-17
5216.41770 1.97351e-17
5218.25590 1.94749e-17
5220.10420 1.94790e-17
5221.94240 1.98409e-17
5223.78060 1.98783e-17
5225.62890 2.02287e-17
5227.46710 2.00107e-17
5229.30530 2.01519e-17
5231.14350 2.05681e-17
5232.99180 2.08740e-17
5234.83000 2.03850e-17
5236.66820 2.08393e-17
5238.50640 2.06364e-17
5240.35470 2.08174e-17
5242.19290 2.10520e-17
5244.03110 2.10733e-17
5245.87940 2.14011e-17
5247.71760 2.12774e-17
5249.55580 2.11892e-17
5251.39400 2.11389e-17
5253.24230 2.13813e-17
5255.08050 2.14596e-17
5256.91870 2.10191e-17
5258.75690 2.03634e-17
5260.60520 2.10581e-17
5262.44340 2.13497e-17
5264.28160 2.16214e-17
5266.12990 2.06581e-17
5267.96810 2.09542e-17
5269.80630 2.15650e-17
5271.64450 2.16143e-17
5273.49280 2.16367e-17
5275.33100 2.16015e-17
5277.16920 2.15808e-17
5279.01750 2.14364e-17
5280.85570 2.14506e-17
5282.69390 2.18209e-17
5284.53210 2.11728e-17
5286.38040 2.20279e-17
5288.21860 2.16858e-17
5290.05680 2.14315e-17
5291.89500 2.19802e-17
5293.74330 2.23129e-17
5295.58150 2.17697e-17
5297.41970 2.17950e-17
5299.26800 2.22191e-17
5301.10620 2.14946e-17
5302.94440 2.15820e-17
5304.78260 2.16613e-17
5306.63090 2.15201e-17
5308.46910 2.21030e-17
5310.30730 2.18061e-17
5312.14550 2.20652e-17
5313.99380 2.21308e-17
5315.83200 2.13550e-17
5317.67020 2.18170e-17
5319.51850 2.23554e-17
5321.35670 2.25482e-17
5323.19490 2.23504e-17
5325.03310 2.22167e-17
5326.88140 2.21574e-17
5328.71960 2.20290e-17
5330.55780 2.19642e-17
5332.39600 2.20264e-17
5334.24430 2.20963e-17
5336.08250 2.20865e-17
5337.92070 2.20090e-17
5339.76900 2.24101e-17
5341.60720 2.20587e-17
5343.44540 2.18153e-17
5345.28360 2.20592e-17
5347.13190 2.25938e-17
5348.97010 2.18046e-17
5350.80830 2.18460e-17
5352.65660 2.20298e-17
5354.49480 2.20262e-17
5356.33300 2.27523e-17
5358.17120 2.21121e-17
5360.01950 2.21093e-17
5361.85770 2.25126e-17
5363.69590 2.20526e-17
5365.53410 2.18141e-17
5367.38240 2.24258e-17
5369.22060 2.25267e-17
5371.05880 2.18922e-17
5372.90710 2.10874e-17
5374.74530 2.13704e-17
5376.58350 2.18816e-17
5378.42170 2.12856e-17
5380.27000 2.16075e-17
5382.10820 2.19560e-17
5383.94640 2.17163e-17
5385.78460 2.14637e-17
5387.63290 2.17746e-17
5389.47110 2.17009e-17
5391.30930 2.11068e-17
5393.15760 2.10176e-17
5394.99580 2.11852e-17
5396.83400 2.15449e-17
5398.67220 2.14620e-17
5400.52050 2.15718e-17
5402.35870 2.18238e-17
5404.19690 2.16631e-17
5406.04520 2.09995e-17
5407.88340 2.08758e-17
5409.72160 2.11031e-17
5411.55980 2.09948e-17
5413.40810 2.07024e-17
5415.24630 2.00998e-17
5417.08450 1.96877e-17
5418.92270 1.97497e-17
5420.77100 2.00467e-17
5422.60920 2.02076e-17
5424.44740 2.04242e-17
5426.29570 2.04489e-17
5428.13390 2.02104e-17
5429.97210 2.01550e-17
5431.81030 2.02627e-17
5433.65860 2.10065e-17
5435.49680 2.01698e-17
5437.33500 2.04291e-17
5439.18330 2.03729e-17
5441.02150 2.03595e-17
5442.85970 1.96607e-17
5444.69790 1.97307e-17
5446.54620 1.94129e-17
5448.38440 1.98674e-17
5450.22260 2.02157e-17
5452.06080 1.99821e-17
5453.90910 2.04784e-17
5455.74730 2.02151e-17
5457.58550 1.96139e-17
5459.43380 1.95085e-17
5461.27200 1.98079e-17
5463.11020 1.95517e-17
5464.94840 2.01500e-17
5466.79670 1.93910e-17
5468.63490 1.92560e-17
5470.47310 1.95309e-17
5472.31130 1.93814e-17
5474.15960 1.96671e-17
5475.99780 1.96440e-17
5477.83600 1.86925e-17
5479.68430 1.92067e-17
5481.52250 1.96131e-17
5483.36070 1.89018e-17
5485.19890 1.84670e-17
5487.04720 1.89787e-17
5488.88540 1.92840e-17
5490.72360 1.94650e-17
5492.56180 1.96556e-17
5494.41010 1.92489e-17
5496.24830 1.92256e-17
5498.08650 1.93903e-17
5499.93480 1.89639e-17
5501.77300 1.87775e-17
5503.61120 1.87457e-17
5505.44940 1.90404e-17
5507.29770 1.92982e-17
5509.13590 1.85729e-17
5510.97410 1.83339e-17
5512.81230 1.87451e-17
5514.66060 1.92445e-17
5516.49880 1.85100e-17
5518.33700 1.87695e-17
5520.18530 1.87202e-17
5522.02350 1.85668e-17
5523.86170 1.85936e-17
5525.69990 1.94120e-17
5527.54820 1.88637e-17
5529.38640 1.90026e-17
5531.22460 1.86645e-17
5533.07290 1.84733e-17
5534.91110 1.94245e-17
5536.74930 1.86438e-17
5538.58750 1.83475e-17
5540.43580 1.87574e-17
5542.27400 1.82897e-17
5544.11220 1.84967e-17
5545.95040 1.81674e-17
5547.79870 1.90633e-17
5549.63690 1.84039e-17
5551.47510 1.82726e-17
5553.32340 1.81805e-17
5555.16160 1.82996e-17
5556.99980 1.85511e-17
5558.83800 1.86053e-17
5560.68630 1.82504e-17
5562.52450 1.83778e-17
5564.36270 1.86013e-17
5566.21100 1.85168e-17
5568.04920 1.84155e-17
5569.88740 1.82919e-17
5571.72560 1.82688e-17
5573.57390 1.82881e-17
5575.41210 1.82999e-17
5577.25030 1.87313e-17
5579.08850 1.87611e-17
5580.93680 1.79541e-17
5582.77500 1.82727e-17
5584.61320 1.86906e-17
5586.46150 1.82987e-17
5588.29970 1.80064e-17
5590.13790 1.82150e-17
5591.97610 1.79870e-17
5593.82440 1.84631e-17
5595.66260 1.85064e-17
5597.50080 1.81724e-17
5599.33900 1.80642e-17
5601.18730 1.81316e-17
5603.02550 1.84452e-17
5604.86370 1.81808e-17
5606.71200 1.79031e-17
5608.55020 1.81520e-17
5610.38840 1.85010e-17
5612.22660 1.88349e-17
5614.07490 1.88144e-17
5615.91310 1.88375e-17
5617.75130 1.89395e-17
5619.58950 1.89435e-17
5621.43780 1.85341e-17
5623.27600 1.82761e-17
5625.11420 1.85649e-17
5626.96250 1.85139e-17
5628.80070 1.86062e-17
5630.63890 1.87931e-17
5632.47710 1.85418e-17
5634.32540 1.85820e-17
5636.16360 1.83010e-17
5638.00180 1.76792e-17
5639.85010 1.81532e-17
5641.68830 1.86183e-17
5643.52650 1.85388e-17
5645.36470 1.83638e-17
5647.21300 1.78905e-17
5649.05120 1.82216e-17
5650.88940 1.85588e-17
5652.72760 1.85183e-17
5654.57590 1.82965e-17
5656.41410 1.82952e-17
5658.25230 1.81789e-17
5660.10060 1.82175e-17
5661.93880 1.83471e-17
5663.77700 1.77042e-17
5665.61520 1.80386e-17
5667.46350 1.88590e-17
5669.30170 1.88438e-17
5671.13990 1.84708e-17
5672.97810 1.87314e-17
5674.82640 1.84062e-17
5676.66460 1.82138e-17
5678.50280 1.85204e-17
5680.35110 1.86469e-17
5682.18930 1.84574e-17
5684.02750 1.86476e-17
5685.86570 1.84545e-17
5687.71400 1.86980e-17
5689.55220 1.87745e-17
5691.39040 1.86374e-17
5693.23870 1.84448e-17
5695.07690 1.85601e-17
5696.91510 1.86297e-17
5698.75330 1.87372e-17
5700.60160 1.87659e-17
5702.43980 1.80769e-17
5704.27800 1.81966e-17
5706.11620 1.87429e-17
5707.96450 1.85088e-17
5709.80270 1.85107e-17
5711.64090 1.85257e-17
5713.48920 1.87452e-17
5715.32740 1.86012e-17
5717.16560 1.84905e-17
5719.00380 1.86215e-17
5720.85210 1.84647e-17
5722.69030 1.82816e-17
5724.52850 1.83071e-17
5726.36670 1.85860e-17
5728.21500 1.83969e-17
5730.05320 1.82876e-17
5731.89140 1.84310e-17
5733.73970 1.84243e-17
5735.57790 1.82833e-17
5737.41610 1.83026e-17
5739.25430 1.82321e-17
5741.10260 1.84081e-17
5742.94080 1.85106e-17
5744.77900 1.84735e-17
5746.62730 1.81066e-17
5748.46550 1.78015e-17
5750.30370 1.79310e-17
5752.14190 1.83075e-17
5753.99020 1.81283e-17
5755.82840 1.80830e-17
5757.66660 1.81805e-17
5759.50480 1.81767e-17
5761.35310 1.82813e-17
5763.19130 1.81617e-17
5765.02950 1.80667e-17
5766.87780 1.81088e-17
5768.71600 1.84668e-17
5770.55420 1.85087e-17
5772.39240 1.80200e-17
5774.24070 1.82978e-17
5776.07890 1.86562e-17
5777.91710 1.84170e-17
5779.75530 1.80245e-17
5781.60360 1.80384e-17
5783.44180 1.79658e-17
5785.28000 1.82643e-17
5787.12830 1.81781e-17
5788.96650 1.83749e-17
5790.80470 1.80767e-17
5792.64290 1.78872e-17
5794.49120 1.83439e-17
5796.32940 1.81035e-17
5798.16760 1.79765e-17
5800.00580 1.78643e-17
5801.85410 1.81922e-17
5803.69230 1.83466e-17
5805.53050 1.81916e-17
5807.37880 1.80916e-17
5809.21700 1.84949e-17
5811.05520 1.85758e-17
5812.89340 1.82406e-17
5814.74170 1.83600e-17
5816.57990 1.85766e-17
5818.41810 1.87006e-17
5820.26640 1.87792e-17
5822.10460 1.86747e-17
5823.94280 1.82657e-17
5825.78100 1.81900e-17
5827.62930 1.90180e-17
5829.46750 1.88157e-17
5831.30570 1.87227e-17
5833.14390 1.83805e-17
5834.99220 1.81983e-17
5836.83040 1.77894e-17
5838.66860 1.73291e-17
5840.51690 1.75485e-17
5842.35510 1.81252e-17
5844.19330 1.84772e-17
5846.03150 1.80740e-17
5847.87980 1.83805e-17
5849.71800 1.86275e-17
5851.55620 1.86005e-17
5853.39440 1.81133e-17
5855.24270 1.83173e-17
5857.08090 1.85977e-17
5858.91910 1.87487e-17
5860.76740 1.89034e-17
5862.60560 1.87625e-17
5864.44380 1.86087e-17
5866.28200 1.85555e-17
5868.13030 1.85723e-17
5869.96850 1.84477e-17
5871.80670 1.82737e-17
5873.65500 1.82938e-17
5875.49320 1.83802e-17
5877.33140 1.82358e-17
5879.16960 1.84079e-17
5881.01790 1.84892e-17
5882.85610 1.81432e-17
5884.69430 1.82228e-17
5886.53250 1.81603e-17
5888.38080 1.71222e-17
5890.21900 1.64285e-17
5892.05720 1.68544e-17
5893.90550 1.75921e-17
5895.74370 1.74385e-17
5897.58190 1.75998e-17
5899.42010 1.76114e-17
5901.26840 1.80475e-17
5903.10660 1.79699e-17
5904.94480 1.79219e-17
5906.78300 1.78740e-17
5908.63130 1.78260e-17
5910.46950 1.77781e-17
5912.30770 1.77301e-17
5914.15600 1.76822e-17
5915.99420 1.76343e-17
5917.83240 1.75864e-17
5919.67060 1.75385e-17
5921.51890 1.74906e-17
5923.35710 1.74428e-17
5925.19530 1.73949e-17
5927.03350 1.73471e-17
5928.88180 1.72993e-17
5930.72000 1.72514e-17
5932.55820 1.72036e-17
5934.40650 1.71558e-17
5936.24470 1.71080e-17
5938.08290 1.70602e-17
5939.92110 1.70125e-17
5941.76940 1.69647e-17
5943.60760 1.69170e-17
5945.44580 1.68692e-17
5947.29410 1.68215e-17
5949.13230 1.67738e-17
5950.97050 1.67261e-17
5952.80870 1.66784e-17
5954.65700 1.66307e-17
5956.49520 1.65830e-17
5958.33340 1.65354e-17
5960.17160 1.64877e-17
5962.01990 1.64401e-17
5963.85810 1.63924e-17
5965.69630 1.63448e-17
5967.54460 1.63989e-17
5969.38280 1.63704e-17
5971.22100 1.61865e-17
5973.05920 1.59214e-17
5974.90750 1.61931e-17
5976.74570 1.61560e-17
5978.58390 1.62836e-17
5980.42210 1.64261e-17
5982.27040 1.62929e-17
5984.10860 1.59905e-17
5985.94680 1.59141e-17
5987.79510 1.60656e-17
5989.63330 1.59283e-17
5991.47150 1.60514e-17
5993.30970 1.62779e-17
5995.15800 1.59232e-17
5996.99620 1.55762e-17
5998.83440 1.55800e-17
6000.68270 1.58830e-17
6002.52090 1.57378e-17
6004.35910 1.60513e-17
6006.19730 1.59957e-17
6008.04560 1.59401e-17
6009.88380 1.62039e-17
6011.72200 1.60495e-17
6013.56020 1.57217e-17
6015.40850 1.57282e-17
6017.24670 1.61109e-17
6019.08490 1.59597e-17
6020.93320 1.57008e-17
6022.77140 1.59234e-17
6024.60960 1.55686e-17
6026.44780 1.57749e-17
6028.29610 1.55388e-17
6030.13430 1.54347e-17
6031.97250 1.53622e-17
6033.81070 1.56157e-17
6035.65900 1.56328e-17
6037.49720 1.55115e-17
6039.33540 1.53126e-17
6041.18370 1.55009e-17
6043.02190 1.58284e-17
6044.86010 1.58929e-17
6046.69830 1.56046e-17
6048.54660 1.58194e-17
6050.38480 1.57269e-17
6052.22300 1.57161e-17
6054.06120 1.54392e-17
6055.90950 1.52641e-17
6057.74770 1.52942e-17
6059.58590 1.54705e-17
6061.43420 1.56368e-17
6063.27240 1.54092e-17
6065.11060 1.52690e-17
6066.94880 1.51885e-17
6068.79710 1.51370e-17
6070.63530 1.50985e-17
6072.47350 1.48184e-17
6074.32180 1.51063e-17
6076.16000 1.52351e-17
6077.99820 1.49695e-17
6079.83640 1.53087e-17
6081.68470 1.50193e-17
6083.52290 1.47869e-17
6085.36110 1.52669e-17
6087.19930 1.45660e-17
6089.04760 1.48147e-17
6090.88580 1.53579e-17
6092.72400 1.51653e-17
6094.57230 1.52866e-17
6096.41050 1.50422e-17
6098.24870 1.50573e-17
6100.08690 1.53338e-17
6101.93520 1.51624e-17
6103.77340 1.51100e-17
6105.61160 1.50638e-17
6107.44980 1.48980e-17
6109.29810 1.50152e-17
6111.13630 1.48985e-17
6112.97450 1.48268e-17
6114.82280 1.52673e-17
6116.66100 1.51575e-17
6118.49920 1.50974e-17
6120.33740 1.55303e-17
6122.18570 1.53999e-17
6124.02390 1.48975e-17
6125.86210 1.52386e-17
6127.71040 1.52373e-17
6129.54860 1.47521e-17
6131.38680 1.50815e-17
6133.22500 1.55594e-17
6135.07330 1.55925e-17
6136.91150 1.55315e-17
6138.74970 1.54459e-17
6140.58790 1.51595e-17
6142.43620 1.53062e-17
6144.27440 1.54814e-17
6146.11260 1.54347e-17
6147.96090 1.52529e-17
6149.79910 1.54041e-17
6151.63730 1.55088e-17
6153.47550 1.50877e-17
6155.32380 1.52575e-17
6157.16200 1.54652e-17
6159.00020 1.55189e-17
6160.83840 1.55922e-17
6162.68670 1.54921e-17
6164.52490 1.55945e-17
6166.36310 1.54506e-17
6168.21140 1.57205e-17
6170.04960 1.57197e-17
6171.88780 1.56052e-17
6173.72600 1.54951e-17
6175.57430 1.59014e-17
6177.41250 1.56675e-17
6179.25070 1.59575e-17
6181.09900 1.59361e-17
6182.93720 1.58685e-17
6184.77540 1.59510e-17
6186.61360 1.60667e-17
6188.46190 1.61492e-17
6190.30010 1.63952e-17
6192.13830 1.65947e-17
6193.97650 1.63476e-17
6195.82480 1.62440e-17
6197.66300 1.65578e-17
6199.50120 1.68072e-17
6201.34950 1.65789e-17
6203.18770 1.64890e-17
6205.02590 1.62806e-17
6206.86410 1.64166e-17
6208.71240 1.64692e-17
6210.55060 1.64914e-17
6212.38880 1.67086e-17
6214.23710 1.69939e-17
6216.07530 1.71947e-17
6217.91350 1.69300e-17
6219.75170 1.69943e-17
6221.60000 1.67200e-17
6223.43820 1.64980e-17
6225.27640 1.66478e-17
6227.11460 1.67846e-17
6228.96290 1.69938e-17
6230.80110 1.68277e-17
6232.63930 1.67985e-17
6234.47750 1.69692e-17
6236.32580 1.65987e-17
6238.16400 1.67151e-17
6240.00220 1.72486e-17
6241.85050 1.71321e-17
6243.68870 1.70355e-17
6245.52690 1.76194e-17
6247.36510 1.75152e-17
6249.21340 1.76475e-17
6251.05160 1.76967e-17
6252.88980 1.78829e-17
6254.73810 1.79485e-17
6256.57630 1.77971e-17
6258.41450 1.76736e-17
6260.25270 1.77508e-17
6262.10100 1.79922e-17
6263.93920 1.76191e-17
6265.77740 1.74838e-17
6267.61560 1.78187e-17
6269.46390 1.79503e-17
6271.30210 1.80109e-17
6273.14030 1.82163e-17
6274.98860 1.80140e-17
6276.82680 1.75105e-17
6278.66500 1.75206e-17
6280.50320 1.78875e-17
6282.35150 1.81355e-17
6284.18970 1.81945e-17
6286.02790 1.83853e-17
6287.87620 1.81829e-17
6289.71440 1.87088e-17
6291.55260 1.87323e-17
6293.39080 1.84840e-17
6295.23910 1.85518e-17
6297.07730 1.91488e-17
6298.91550 1.91005e-17
6300.75370 1.91141e-17
6302.60200 1.87953e-17
6304.44020 1.87646e-17
6306.27840 1.87212e-17
6308.12670 1.87305e-17
6309.96490 1.89442e-17
6311.80310 1.89466e-17
6313.64130 1.90327e-17
6315.48960 1.93424e-17
6317.32780 1.92562e-17
6319.16600 1.93179e-17
6321.00420 2.00277e-17
6322.85250 1.96909e-17
6324.69070 1.95097e-17
6326.52890 1.98735e-17
6328.37720 1.95842e-17
6330.21540 1.96089e-17
6332.05360 1.98293e-17
6333.89180 1.95164e-17
6335.74010 1.93952e-17
6337.57830 1.92187e-17
6339.41650 1.95246e-17
6341.26480 1.94497e-17
6343.10300 1.91705e-17
6344.94120 1.89360e-17
6346.77940 1.85552e-17
6348.62770 1.87224e-17
6350.46590 1.92719e-17
6352.30410 1.92207e-17
6354.14230 1.92892e-17
6355.99060 1.99891e-17
6357.82880 2.01876e-17
6359.66700 1.99742e-17
6361.50520 2.00260e-17
6363.35350 2.02299e-17
6365.19170 1.98539e-17
6367.02990 1.99208e-17
6368.87820 2.00474e-17
6370.71640 1.94409e-17
6372.55460 1.95224e-17
6374.39280 2.01194e-17
6376.24110 1.98739e-17
6378.07930 1.98209e-17
6379.91750 1.99138e-17
6381.76580 2.01831e-17
6383.60400 2.00387e-17
6385.44220 1.98401e-17
6387.28040 2.00223e-17
6389.12870 2.00420e-17
6390.96690 1.99035e-17
6392.80510 1.98578e-17
6394.64330 1.99691e-17
6396.49160 2.00333e-17
6398.32980 1.98293e-17
6400.16800 1.96432e-17
6402.01630 1.99334e-17
6403.85450 1.99078e-17
6405.69270 1.98955e-17
6407.53090 2.00512e-17
6409.37920 1.96945e-17
6411.21740 1.95591e-17
6413.05560 1.99326e-17
6414.90390 2.00594e-17
6416.74210 1.97801e-17
6418.58030 1.93529e-17
6420.41850 1.94458e-17
6422.26680 1.96407e-17
6424.10500 1.97384e-17
6425.94320 1.96865e-17
6427.78140 1.95536e-17
6429.62970 1.96661e-17
6431.46790 1.95903e-17
6433.30610 1.96237e-17
6435.15440 1.98722e-17
6436.99260 1.97876e-17
6438.83080 1.99568e-17
6440.66900 1.98277e-17
6442.51730 1.94491e-17
6442.51730 1.94491e-17
6444.38580 1.94513e-17
6446.25430 1.94536e-17
6448.12280 1.94559e-17
6449.99130 1.94582e-17
6451.85980 1.94604e-17
6453.72830 1.94627e-17
6455.60690 1.94650e-17
6457.47540 1.94672e-17
6459.34390 1.94695e-17
6461.21240 1.94718e-17
6463.08090 1.94740e-17
6464.94940 1.94763e-17
6466.81790 1.94786e-17
6468.68640 1.94808e-17
6470.56500 1.94831e-17
6472.43350 1.94854e-17
6474.30200 1.94876e-17
6476.17050 1.94899e-17
6478.03900 1.94922e-17
6479.90750 1.94945e-17
6481.77600 1.94967e-17
6483.65460 1.94990e-17
6485.52310 1.95013e-17
6487.39160 1.95035e-17
6489.26010 1.95058e-17
6491.12860 1.95081e-17
6492.99710 1.95104e-17
6494.86560 1.95126e-17
6496.73410 1.95149e-17
6498.61270 1.95172e-17
6500.48120 1.95195e-17
6502.34970 1.95217e-17
6504.21820 1.95240e-17
6506.08670 1.95263e-17
6507.95520 1.95285e-17
6509.82370 1.95308e-17
6511.69220 1.95331e-17
6513.57080 1.95354e-17
6515.43930 1.95376e-17
6517.30780 1.95399e-17
6519.17630 1.95422e-17
6521.04480 1.95445e-17
6522.91330 1.95467e-17
6524.78180 1.95490e-17
6526.65030 1.95513e-17
6528.52890 1.95536e-17
6530.39740 1.95558e-17
6532.26590 1.95581e-17
6534.13440 1.95604e-17
6536.00290 1.95627e-17
6537.87140 1.95649e-17
6539.73990 1.95672e-17
6541.60840 1.95695e-17
6543.48700 1.95718e-17
6545.35550 1.95740e-17
6547.22400 1.95763e-17
6549.09250 1.95786e-17
6550.96100 1.95809e-17
6552.82950 1.95831e-17
6554.69800 1.95854e-17
6556.57660 1.95877e-17
6558.44510 1.95900e-17
6560.31360 1.95922e-17
6562.18210 1.95945e-17
6564.05060 1.95968e-17
6565.91910 1.95991e-17
6567.78760 1.96013e-17
6569.65610 1.96036e-17
6571.53470 1.96059e-17
6573.40320 1.96082e-17
6573.40320 1.96082e-17
6575.38280 1.96193e-17
6577.37250 1.96654e-17
6579.35210 1.95307e-17
6581.34180 1.93928e-17
6583.32140 1.91409e-17
6585.31110 1.94999e-17
6587.29070 1.93372e-17
6589.28040 1.93022e-17
6591.26000 1.92349e-17
6593.24970 1.93990e-17
6595.23940 1.93622e-17
6597.21900 1.93823e-17
6599.20870 1.94024e-17
6601.18830 1.94226e-17
6603.17800 1.94427e-17
6605.15760 1.94628e-17
6607.14730 1.94829e-17
6609.12690 1.95030e-17
6611.11660 1.95231e-17
6613.09620 1.95432e-17
6615.08590 1.95634e-17
6617.06550 1.95834e-17
6619.05520 1.96035e-17
6621.03480 1.96236e-17
6623.02450 1.96437e-17
6625.01420 1.96638e-17
6626.99380 1.96839e-17
6628.98350 1.97040e-17
6630.96310 1.97241e-17
6632.95280 1.97442e-17
6634.93240 1.97263e-17
6636.92210 1.97084e-17
6638.90170 1.96905e-17
6640.89140 1.96726e-17
6642.87100 1.96548e-17
6644.86070 1.96369e-17
6646.84030 1.96190e-17
6648.83000 1.96012e-17
6650.80960 1.95833e-17
6652.79930 1.95655e-17
6654.78900 1.95476e-17
6656.76860 1.95298e-17
6658.75830 1.95119e-17
6660.73790 1.94941e-17
6662.72760 1.94762e-17
6664.70720 1.94584e-17
6666.69690 1.94406e-17
6668.67650 1.94227e-17
6670.66620 1.93405e-17
6672.64580 1.94946e-17
6674.63550 1.94032e-17
6676.61510 1.94845e-17
6678.60480 1.92327e-17
6680.58440 1.95177e-17
6682.57410 1.92749e-17
6684.55370 1.91368e-17
6686.54340 1.90926e-17
6688.53310 1.93441e-17
6690.51270 1.91926e-17
6692.50240 1.90444e-17
6694.48200 1.93776e-17
6696.47170 1.92527e-17
6698.45130 1.93226e-17
6700.44100 1.90391e-17
6702.42060 1.89842e-17
6704.41030 1.92332e-17
6706.38990 1.92102e-17
6708.37960 1.92717e-17
6710.35920 1.88738e-17
6712.34890 1.87515e-17
6714.32850 1.88822e-17
6716.31820 1.86848e-17
6718.30790 1.86791e-17
6720.28750 1.84246e-17
6722.27720 1.86571e-17
6724.25680 1.87914e-17
6726.24650 1.84800e-17
6728.22610 1.83872e-17
6730.21580 1.84644e-17
6732.19540 1.82538e-17
6734.18510 1.86216e-17
6736.16470 1.87080e-17
6738.15440 1.82517e-17
6740.13400 1.83088e-17
6742.12370 1.86111e-17
6744.10330 1.85808e-17
6746.09300 1.88923e-17
6748.07260 1.84704e-17
6750.06230 1.82609e-17
6752.04190 1.81214e-17
6754.03160 1.81370e-17
6756.02130 1.82584e-17
6758.00090 1.84790e-17
6759.99060 1.79038e-17
6761.97020 1.81886e-17
6763.95990 1.81842e-17
6765.93950 1.82713e-17
6767.92920 1.83584e-17
6769.90880 1.84455e-17
6771.89850 1.85326e-17
6773.87810 1.86197e-17
6775.86780 1.87067e-17
6777.84740 1.87938e-17
6779.83710 1.88808e-17
6781.81670 1.87937e-17
6783.80640 1.87066e-17
6785.79610 1.86195e-17
6787.77570 1.85324e-17
6789.76540 1.84454e-17
6791.74500 1.83583e-17
6793.73470 1.82713e-17
6795.71430 1.81842e-17
6797.70400 1.80972e-17
6799.68360 1.80102e-17
6801.67330 1.79232e-17
6803.65290 1.78363e-17
6805.64260 1.77493e-17
6807.62220 1.76624e-17
6809.61190 1.75754e-17
6811.59150 1.74885e-17
6813.58120 1.74016e-17
6815.56080 1.73147e-17
6817.55050 1.72278e-17
6819.54020 1.72358e-17
6821.51980 1.74234e-17
6823.50950 1.72882e-17
6825.48910 1.73323e-17
6827.47880 1.73280e-17
6829.45840 1.73963e-17
6831.44810 1.72830e-17
6833.42770 1.71812e-17
6835.41740 1.74363e-17
6837.39700 1.70818e-17
6839.38670 1.67788e-17
6841.36630 1.69509e-17
6843.35600 1.69919e-17
6845.33560 1.69852e-17
6847.32530 1.69785e-17
6849.31500 1.69718e-17
6851.29460 1.69651e-17
6853.28430 1.69584e-17
6855.26390 1.69517e-17
6857.25360 1.69450e-17
6859.23320 1.69383e-17
6861.22290 1.69316e-17
6863.20250 1.69249e-17
6865.19220 1.69182e-17
6867.17180 1.69115e-17
6869.16150 1.69048e-17
6871.14110 1.68981e-17
6873.13080 1.68914e-17
6875.11040 1.68847e-17
6877.10010 1.68780e-17
6879.08980 1.68713e-17
6881.06940 1.68646e-17
6883.05910 1.68579e-17
6885.03870 1.68512e-17
6887.02840 1.68445e-17
6889.00800 1.68378e-17
6890.99770 1.68311e-17
6892.97730 1.68244e-17
6894.96700 1.68177e-17
6896.94660 1.68110e-17
6898.93630 1.68043e-17
6900.91590 1.67976e-17
6902.90560 1.67909e-17
6904.88520 1.67842e-17
6906.87490 1.67775e-17
6908.86460 1.67708e-17
6910.84420 1.67642e-17
6912.83390 1.67575e-17
6914.81350 1.67508e-17
6916.80320 1.67441e-17
6918.78280 1.67374e-17
6920.77250 1.67307e-17
6922.75210 1.67240e-17
6924.74180 1.67174e-17
6926.72140 1.67107e-17
6928.71110 1.67040e-17
6930.69070 1.66973e-17
6932.68040 1.66906e-17
6934.66000 1.66840e-17
6936.64970 1.66773e-17
6938.62930 1.63650e-17
6940.61900 1.62612e-17
6942.60870 1.62703e-17
6944.58830 1.65103e-17
6946.57800 1.64562e-17
6948.55760 1.64440e-17
6950.54730 1.66431e-17
6952.52690 1.65250e-17
6954.51660 1.64691e-17
6956.49620 1.63562e-17
6958.48590 1.64423e-17
6960.46550 1.65874e-17
6962.45520 1.65212e-17
6964.43480 1.65851e-17
6966.42450 1.63826e-17
6968.40410 1.65441e-17
6970.39380 1.69502e-17
6972.38350 1.69909e-17
6974.36310 1.67103e-17
6976.35280 1.67262e-17
6978.33240 1.67082e-17
6980.32210 1.66254e-17
6982.30170 1.66776e-17
6984.29140 1.68148e-17
6986.27100 1.65628e-17
6988.26070 1.65261e-17
6990.24030 1.65108e-17
6992.23000 1.65709e-17
6994.20960 1.68370e-17
6996.19930 1.67234e-17
6998.17890 1.63675e-17
7000.16860 1.66142e-17
7002.14820 1.63557e-17
7004.13790 1.61299e-17
7006.11750 1.64191e-17
7008.10720 1.62397e-17
7010.09690 1.64211e-17
7012.07650 1.63832e-17
7014.06620 1.65192e-17
7016.04580 1.64488e-17
7018.03550 1.64381e-17
7020.01510 1.65149e-17
7022.00480 1.65837e-17
7023.98440 1.64186e-17
7025.97410 1.66256e-17
7027.95370 1.62403e-17
7029.94340 1.64584e-17
7031.92300 1.66602e-17
7033.91270 1.64230e-17
7035.90240 1.62823e-17
7037.88200 1.64025e-17
7039.87170 1.64517e-17
7041.85130 1.66947e-17
7043.84100 1.65086e-17
7045.82060 1.62529e-17
7047.81030 1.64721e-17
7049.78990 1.63297e-17
7051.77960 1.61398e-17
7053.75920 1.63275e-17
7055.74890 1.64634e-17
7057.72850 1.63261e-17
7059.71820 1.65678e-17
7061.69780 1.63716e-17
7063.68750 1.62534e-17
7065.66710 1.62578e-17
7067.65680 1.64808e-17
7069.64650 1.65774e-17
7071.62610 1.63296e-17
7073.61580 1.65219e-17
7075.59540 1.66573e-17
7077.58510 1.65448e-17
7079.56470 1.67695e-17
7081.55440 1.68793e-17
7083.53400 1.64762e-17
7085.52370 1.62119e-17
7087.50330 1.63574e-17
7089.49300 1.66116e-17
7091.47260 1.64385e-17
7093.46230 1.63463e-17
7095.44190 1.65304e-17
7097.43160 1.68084e-17
7099.41120 1.67427e-17
7101.40090 1.66245e-17
7103.39060 1.66886e-17
7105.37020 1.67932e-17
7107.35990 1.68628e-17
7109.33950 1.68054e-17
7111.32920 1.67937e-17
7113.30880 1.68760e-17
7115.29850 1.69652e-17
7117.27810 1.67321e-17
7119.26780 1.63950e-17
7121.24740 1.65802e-17
7123.23710 1.65664e-17
7125.21670 1.65204e-17
7127.20640 1.64677e-17
7129.18600 1.65207e-17
7131.17570 1.64496e-17
7133.16540 1.66867e-17
7135.14500 1.66174e-17
7137.13470 1.66994e-17
7139.11430 1.67952e-17
7141.10400 1.67897e-17
7143.08360 1.66527e-17
7145.07330 1.64782e-17
7147.05290 1.64139e-17
7149.04260 1.63000e-17
7151.02220 1.66216e-17
7153.01190 1.66273e-17
7154.99150 1.63808e-17
7156.98120 1.65081e-17
7158.96080 1.63857e-17
7160.95050 1.63029e-17
7162.94020 1.60550e-17
7164.91980 1.57228e-17
7166.90950 1.53196e-17
7168.88910 1.50814e-17
7170.87880 1.50695e-17
7172.85840 1.48421e-17
7174.84810 1.49686e-17
7176.82770 1.49929e-17
7178.81740 1.51092e-17
7180.79700 1.47962e-17
7182.78670 1.42620e-17
7184.76630 1.40639e-17
7186.75600 1.39693e-17
7188.73560 1.39773e-17
7190.72530 1.41614e-17
7192.70490 1.41656e-17
7194.69460 1.41688e-17
7196.68430 1.40683e-17
7198.66390 1.39469e-17
7200.65360 1.39153e-17
7202.63320 1.42940e-17
7204.62290 1.43533e-17
7206.60250 1.45954e-17
7208.59220 1.48020e-17
7210.57180 1.49679e-17
7212.56150 1.47682e-17
7214.54110 1.49532e-17
7216.53080 1.47600e-17
7218.51040 1.46129e-17
7220.50010 1.47064e-17
7222.47970 1.47806e-17
7224.46940 1.44500e-17
7226.45910 1.42105e-17
7228.43870 1.40864e-17
7230.42840 1.38583e-17
7232.40800 1.35497e-17
7234.39770 1.34285e-17
7236.37730 1.32518e-17
7238.36700 1.33072e-17
7240.34660 1.30562e-17
7242.33630 1.28640e-17
7244.31590 1.28881e-17
7246.30560 1.31527e-17
7248.28520 1.32044e-17
7250.27490 1.31545e-17
7252.25450 1.30157e-17
7254.24420 1.30464e-17
7256.22380 1.30919e-17
7258.21350 1.33488e-17
7260.20320 1.32115e-17
7262.18280 1.25911e-17
7264.17250 1.24109e-17
7266.15210 1.28827e-17
7268.14180 1.28920e-17
7270.12140 1.29135e-17
7272.11110 1.27102e-17
7274.09070 1.21384e-17
7276.08040 1.22281e-17
7278.06000 1.23143e-17
7280.04970 1.22814e-17
7282.02930 1.26333e-17
7284.01900 1.29798e-17
7285.99860 1.26001e-17
7287.98830 1.24149e-17
7289.97800 1.20095e-17
7291.95760 1.19919e-17
7293.94730 1.22860e-17
7295.92690 1.22431e-17
7297.91660 1.22803e-17
7299.89620 1.25336e-17
7301.88590 1.23111e-17
7303.86550 1.22279e-17
7305.85520 1.24187e-17
7307.83480 1.22772e-17
7309.82450 1.23600e-17
7311.80410 1.23313e-17
7313.79380 1.23852e-17
7315.77340 1.25771e-17
7317.76310 1.24766e-17
7319.74270 1.23583e-17
7321.73240 1.25687e-17
7323.72210 1.26035e-17
7325.70170 1.24056e-17
7327.69140 1.26182e-17
7329.67100 1.25715e-17
7331.66070 1.24619e-17
7333.64030 1.23906e-17
7335.63000 1.23951e-17
7337.60960 1.27310e-17
7339.59930 1.25050e-17
7341.57890 1.23988e-17
7343.56860 1.21158e-17
7345.54820 1.23876e-17
7347.53790 1.24972e-17
7349.51750 1.21705e-17
7351.50720 1.22501e-17
7353.49690 1.24024e-17
7355.47650 1.24583e-17
7357.46620 1.23328e-17
7359.44580 1.21750e-17
7361.43550 1.22803e-17
7363.41510 1.26388e-17
7365.40480 1.22987e-17
7367.38440 1.21833e-17
7369.37410 1.23211e-17
7371.35370 1.23800e-17
7373.34340 1.24632e-17
7375.32300 1.25153e-17
7377.31270 1.22483e-17
7379.29230 1.21439e-17
7381.28200 1.21586e-17
7383.27170 1.21859e-17
7385.25130 1.22568e-17
7387.24100 1.24068e-17
7389.22060 1.22223e-17
7391.21030 1.21658e-17
7393.18990 1.24726e-17
7395.17960 1.23987e-17
7397.15920 1.24592e-17
7399.14890 1.21870e-17
7401.12850 1.23125e-17
7403.11820 1.24805e-17
7405.09780 1.22308e-17
7407.08750 1.23088e-17
7409.06710 1.23255e-17
7411.05680 1.21649e-17
7413.03640 1.20746e-17
7415.02610 1.22195e-17
7417.01580 1.22349e-17
7418.99540 1.19985e-17
7420.98510 1.21707e-17
7422.96470 1.20288e-17
7424.95440 1.19887e-17
7426.93400 1.21825e-17
7428.92370 1.22851e-17
7430.90330 1.20409e-17
7432.89300 1.20418e-17
7434.87260 1.21535e-17
7436.86230 1.19951e-17
7438.84190 1.21133e-17
7440.83160 1.21413e-17
7442.81120 1.20905e-17
7444.80090 1.21326e-17
7446.79060 1.22262e-17
7448.77020 1.20688e-17
7450.75990 1.22021e-17
7452.73950 1.22605e-17
7454.72920 1.21404e-17
7456.70880 1.22998e-17
7458.69850 1.20884e-17
7460.67810 1.20007e-17
7462.66780 1.20140e-17
7464.64740 1.20596e-17
7466.63710 1.19989e-17
7468.61670 1.19973e-17
7470.60640 1.20207e-17
7472.58600 1.21064e-17
7474.57570 1.19963e-17
7476.55530 1.20709e-17
7478.54500 1.22127e-17
7480.53470 1.17929e-17
7482.51430 1.18176e-17
7484.50400 1.20106e-17
7486.48360 1.19259e-17
7488.47330 1.20374e-17
7490.45290 1.20630e-17
7492.44260 1.20002e-17
7494.42220 1.20771e-17
7496.41190 1.20055e-17
7498.39150 1.20074e-17
7500.38120 1.19034e-17
7502.36080 1.19930e-17
7504.35050 1.19367e-17
7506.33010 1.19956e-17
7508.31980 1.22040e-17
7510.29940 1.21016e-17
7512.28910 1.19507e-17
7514.27880 1.20328e-17
7516.25840 1.20371e-17
7518.24810 1.21860e-17
7520.22770 1.21714e-17
7522.21740 1.22530e-17
7524.19700 1.22422e-17
7526.18670 1.22118e-17
7528.16630 1.24378e-17
7530.15600 1.25136e-17
7532.13560 1.24504e-17
7534.12530 1.24032e-17
7536.10490 1.25232e-17
7538.09460 1.26257e-17
7540.07420 1.23865e-17
7542.06390 1.22894e-17
7544.05360 1.25200e-17
7546.03320 1.25744e-17
7548.02290 1.26190e-17
7550.00250 1.26107e-17
7551.99220 1.26024e-17
7553.97180 1.25942e-17
7555.96150 1.25859e-17
7557.94110 1.25776e-17
7559.93080 1.25693e-17
7561.91040 1.25611e-17
7563.90010 1.25528e-17
7565.87970 1.25445e-17
7567.86940 1.25362e-17
7569.84900 1.25280e-17
7571.83870 1.25197e-17
7573.81830 1.25114e-17
7575.80800 1.25032e-17
7577.79770 1.24949e-17
7579.77730 1.24866e-17
7581.76700 1.24784e-17
7583.74660 1.24701e-17
7585.73630 1.24618e-17
7587.71590 1.24536e-17
7589.70560 1.24453e-17
7591.68520 1.24371e-17
7593.67490 1.24288e-17
7595.65450 1.24205e-17
7597.64420 1.24123e-17
7599.62380 1.24040e-17
7601.61350 1.23958e-17
7603.59310 1.23875e-17
7605.58280 1.23793e-17
7607.57250 1.23710e-17
7609.55210 1.23628e-17
7611.54180 1.23545e-17
7613.52140 1.23463e-17
7615.51110 1.23380e-17
7617.49070 1.23298e-17
7619.48040 1.23215e-17
7621.46000 1.23133e-17
7623.44970 1.23050e-17
7625.42930 1.22968e-17
7627.41900 1.22886e-17
7629.39860 1.22803e-17
7631.38830 1.22721e-17
7633.36790 1.22638e-17
7635.35760 1.22556e-17
7637.34730 1.22474e-17
7639.32690 1.22391e-17
7641.31660 1.22309e-17
7643.29620 1.22227e-17
7645.28590 1.22144e-17
7647.26550 1.22062e-17
7649.25520 1.21980e-17
7651.23480 1.21898e-17
7653.22450 1.21815e-17
7655.20410 1.21733e-17
7657.19380 1.21651e-17
7659.17340 1.21569e-17
7661.16310 1.21486e-17
7663.14270 1.21404e-17
7665.13240 1.21322e-17
7667.11200 1.21240e-17
7669.10170 1.21158e-17
7671.09140 1.21075e-17
7673.07100 1.20993e-17
7675.06070 1.20911e-17
7677.04030 1.20829e-17
7679.03000 1.20747e-17
7681.00960 1.20665e-17
7682.99930 1.19752e-17
7684.97890 1.18125e-17
7686.96860 1.20465e-17
7688.94820 1.21277e-17
7690.93790 1.22144e-17
7692.91750 1.20496e-17
7694.90720 1.19221e-17
7696.88680 1.20617e-17
7698.87650 1.19957e-17
7700.86620 1.19914e-17
7702.84580 1.21627e-17
7704.83550 1.18458e-17
7706.81510 1.19492e-17
7708.80480 1.18081e-17
7710.78440 1.16693e-17
7712.77410 1.16787e-17
7714.75370 1.17499e-17
7716.74340 1.17737e-17
7718.72300 1.15477e-17
7720.71270 1.16470e-17
7722.69230 1.13593e-17
7724.68200 1.16242e-17
7726.66160 1.17034e-17
7728.65130 1.15333e-17
7730.63090 1.14576e-17
7732.62060 1.16489e-17
7734.61030 1.16497e-17
7736.58990 1.16379e-17
7738.57960 1.15621e-17
7740.55920 1.15477e-17
7742.54890 1.13267e-17
7744.52850 1.11446e-17
7746.51820 1.11480e-17
7748.49780 1.14519e-17
7750.48750 1.14015e-17
7752.46710 1.14206e-17
7754.45680 1.11593e-17
7756.43640 1.12498e-17
7758.42610 1.13926e-17
7760.40570 1.13542e-17
7762.39540 1.13925e-17
7764.38510 1.13933e-17
7766.36470 1.10335e-17
7768.35440 1.09290e-17
7770.33400 1.10071e-17
7772.32370 1.10699e-17
7774.30330 1.07858e-17
7776.29300 1.08589e-17
7778.27260 1.08830e-17
7780.26230 1.06631e-17
7782.24190 1.07627e-17
7784.23160 1.06777e-17
7786.21120 1.07209e-17
7788.20090 1.06910e-17
7790.18050 1.06856e-17
7792.17020 1.07719e-17
7794.14980 1.06783e-17
7796.13950 1.04045e-17
7798.12920 1.06470e-17
7800.10880 1.05653e-17
7802.09850 1.03549e-17
7804.07810 1.03079e-17
7806.06780 1.01255e-17
7808.04740 1.02648e-17
7810.03710 1.04214e-17
7812.01670 1.01070e-17
7814.00640 1.00073e-17
7815.98600 1.03095e-17
7817.97570 1.00767e-17
7819.95530 9.93811e-18
7821.94500 1.02744e-17
7823.92460 1.01615e-17
7825.91430 9.90145e-18
7827.90400 9.76593e-18
7829.88360 9.85457e-18
7831.87330 9.81221e-18
7833.85290 9.83331e-18
7835.84260 9.57254e-18
7837.82220 9.49043e-18
7839.81190 9.43311e-18
7841.79150 9.29586e-18
7843.78120 9.52436e-18
7845.76080 9.44379e-18
7847.75050 9.42360e-18
7849.73010 9.29663e-18
7851.71980 9.49555e-18
7853.69940 9.08910e-18
7855.68910 9.25940e-18
7857.66870 9.34475e-18
7859.65840 9.05633e-18
7861.64810 9.39875e-18
7863.62770 9.18687e-18
7865.61740 9.21626e-18
7867.59700 9.07168e-18
7869.58670 9.07397e-18
7871.56630 9.08588e-18
7873.55600 9.16254e-18
7875.53560 9.22424e-18
7877.52530 9.31798e-18
7879.50490 9.16202e-18
7881.49460 9.01612e-18
7883.47420 8.97442e-18
7885.46390 8.87546e-18
7887.44350 8.79625e-18
7889.43320 8.77646e-18
7891.42290 8.72489e-18
7893.40250 8.83865e-18
7895.39220 9.08088e-18
7897.37180 8.71374e-18
7899.36150 8.79591e-18
7901.34110 8.65686e-18
7903.33080 8.61364e-18
7905.31040 8.78919e-18
7907.30010 8.74815e-18
7909.27970 8.65751e-18
7911.26940 8.67575e-18
7913.24900 8.97677e-18
7915.23870 8.76691e-18
7917.21830 8.91449e-18
7919.20800 8.80822e-18
7921.18760 8.55572e-18
7923.17730 8.68798e-18
7925.16700 8.47428e-18
7927.14660 8.62805e-18
7929.13630 8.74110e-18
7931.11590 8.87698e-18
7933.10560 8.89325e-18
7935.08520 8.56887e-18
7937.07490 8.74191e-18
7939.05450 8.69624e-18
7941.04420 8.73199e-18
7943.02380 8.66619e-18
7945.01350 8.72530e-18
7946.99310 8.64836e-18
7948.98280 8.52959e-18
7950.96240 8.54540e-18
7952.95210 8.76433e-18
7954.94180 8.55395e-18
7956.92140 8.77562e-18
7958.91110 8.47105e-18
7960.89070 8.39592e-18
7962.88040 8.26286e-18
7964.86000 8.33482e-18
7966.84970 8.51989e-18
7968.82930 8.59593e-18
7970.81900 8.59180e-18
7972.79860 8.43485e-18
7974.78830 8.46126e-18
7976.76790 8.77511e-18
7978.75760 8.63953e-18
7980.73720 8.58324e-18
7982.72690 8.43542e-18
7984.70650 8.51142e-18
7986.69620 8.42430e-18
7988.68590 8.53813e-18
7990.66550 8.65276e-18
7992.65520 8.55903e-18
7994.63480 8.32095e-18
7996.62450 8.28997e-18
7998.60410 8.64889e-18
8000.59380 8.42218e-18
8002.57340 8.35097e-18
8004.56310 8.14766e-18
8006.54270 8.36570e-18
8008.53240 8.63392e-18
8010.51200 8.65061e-18
8012.50170 8.62854e-18
8014.48130 8.52109e-18
8016.47100 8.39464e-18
8018.46070 8.33690e-18
8020.44030 8.60531e-18
8022.43000 8.69000e-18
8024.40960 8.69194e-18
8026.39930 8.59392e-18
8028.37890 8.61268e-18
8030.36860 8.69823e-18
8032.34820 8.57946e-18
8034.33790 8.72635e-18
8036.31750 8.63267e-18
8038.30720 8.82808e-18
8040.28680 8.83738e-18
8042.27650 8.46550e-18
8044.25610 8.73091e-18
8046.24580 8.71623e-18
8048.22540 8.81641e-18
8050.21510 9.13039e-18
8052.20480 9.04021e-18
8054.18440 8.80462e-18
8056.17410 8.96834e-18
8058.15370 8.94652e-18
8060.14340 8.75048e-18
8062.12300 8.91268e-18
8064.11270 8.84845e-18
8066.09230 8.68694e-18
8068.08200 8.99633e-18
8070.06160 8.79666e-18
8072.05130 8.80885e-18
8074.03090 8.77419e-18
8076.02060 8.78165e-18
8078.00020 8.65528e-18
8079.98990 8.80933e-18
8081.97960 8.76183e-18
8083.95920 8.79578e-18
8085.94890 8.69847e-18
8087.92850 8.80288e-18
8089.91820 8.89280e-18
8091.89780 9.04010e-18
8093.88750 8.71678e-18
8095.86710 8.55161e-18
8097.85680 8.65014e-18
8099.83640 8.87718e-18
8101.82610 8.68122e-18
8103.80570 8.66074e-18
8105.79540 8.61399e-18
8107.77500 8.51667e-18
8109.76470 8.29793e-18
8111.75440 8.29817e-18
8113.73400 8.28109e-18
8115.72370 8.32915e-18
8117.70330 8.34800e-18
8119.69300 8.38641e-18
8121.67260 8.12423e-18
8123.66230 8.04884e-18
8125.64190 8.21243e-18
8127.63160 8.37205e-18
8129.61120 8.10735e-18
8131.60090 8.07539e-18
8133.58050 7.82440e-18
8135.57020 7.73071e-18
8137.54980 7.91075e-18
8139.53950 7.73201e-18
8141.52920 7.81342e-18
8143.50880 7.99453e-18
8145.49850 7.91845e-18
8147.47810 7.90222e-18
8149.46780 7.88206e-18
8151.44740 7.78954e-18
8153.43710 7.65505e-18
8155.41670 7.63168e-18
8157.40640 7.73986e-18
8159.38600 7.71969e-18
8161.37570 7.49152e-18
8163.35530 7.45646e-18
8165.34500 7.54897e-18
8167.32460 7.67754e-18
8169.31430 7.90478e-18
8171.29390 8.13595e-18
8173.28360 8.31537e-18
8175.26320 8.17251e-18
8177.25290 8.09638e-18
8179.24260 7.75875e-18
8181.22220 8.12369e-18
8183.21190 8.37987e-18
8185.19150 8.34043e-18
8187.18120 8.50520e-18
8189.16080 8.54662e-18
8191.15050 8.32279e-18
8193.13010 8.40118e-18
8195.11980 8.53511e-18
8197.09940 8.73306e-18
8199.08910 8.60260e-18
8201.06870 8.97686e-18
8203.05840 9.14475e-18
8205.04810 9.28350e-18
8207.02770 9.39231e-18
8209.01740 9.41341e-18
8210.99700 9.44264e-18
8212.98670 9.53451e-18
8214.96630 9.53997e-18
8216.95600 9.52166e-18
8218.93560 9.53848e-18
8220.92530 9.54644e-18
8222.90490 9.57627e-18
8224.89460 8.98473e-18
8226.87420 8.29926e-18
8228.86390 7.86085e-18
8230.84350 8.09433e-18
8232.83320 8.49687e-18
8234.81280 9.15763e-18
8236.80250 9.70623e-18
8238.78210 9.62887e-18
8240.77180 9.65811e-18
8242.76150 9.77273e-18
8244.74110 9.88213e-18
8246.73080 1.01675e-17
8248.71040 1.02908e-17
8250.70010 1.02179e-17
8252.67970 1.02753e-17
8254.66940 1.01755e-17
8256.64900 9.90753e-18
8258.63870 1.01639e-17
8260.61830 1.02291e-17
8262.60800 1.01640e-17
8264.58760 1.02253e-17
8266.57730 1.06125e-17
8268.55690 1.08739e-17
8270.54660 1.08054e-17
8272.52620 1.02897e-17
8274.51590 9.89764e-18
8276.50560 1.00045e-17
8278.48520 1.00021e-17
8280.47490 1.00605e-17
8282.45450 1.04053e-17
8284.44420 1.03509e-17
8286.42380 1.03204e-17
8288.41350 1.03020e-17
8290.39310 1.03840e-17
8292.38280 1.06450e-17
8294.36240 1.05346e-17
8296.35210 1.03750e-17
8298.33170 1.04832e-17
8300.32140 1.06078e-17
8302.31110 1.04936e-17
8304.29070 1.06169e-17
8306.28040 1.08510e-17
8308.26000 1.08784e-17
8310.24970 1.13558e-17
8312.22930 1.10372e-17
8314.21900 1.10263e-17
8316.19860 1.09326e-17
8318.18830 1.07636e-17
8320.16790 1.04825e-17
8322.15760 1.08016e-17
8324.13720 1.09044e-17
8326.12690 1.11857e-17
8328.10650 1.12817e-17
8330.09620 1.12459e-17
8332.07580 1.11774e-17
8334.06550 1.14475e-17
8336.05520 1.14361e-17
8338.03480 1.14028e-17
8340.02450 1.15902e-17
8342.00410 1.18802e-17
8343.99380 1.15245e-17
8345.97340 1.14094e-17
8347.96310 1.16207e-17
8349.94270 1.17437e-17
8351.93240 1.20067e-17
8353.91200 1.17286e-17
8355.90170 1.18857e-17
8357.88130 1.17580e-17
8359.87100 1.17988e-17
8361.85060 1.19483e-17
8363.84030 1.22071e-17
8365.83000 1.22905e-17
8367.80960 1.22264e-17
8369.79930 1.23127e-17
8371.77890 1.23254e-17
8373.76860 1.23911e-17
8375.74820 1.21368e-17
8377.73790 1.21572e-17
8379.71750 1.24752e-17
8381.70720 1.21869e-17
8383.68680 1.24520e-17
8385.67650 1.24626e-17
8387.65610 1.24502e-17
8389.64580 1.25335e-17
8391.62540 1.24562e-17
8393.61510 1.26358e-17
8395.59470 1.23978e-17
8397.58440 1.25469e-17
8399.57410 1.25203e-17
8401.55370 1.25015e-17
8403.54340 1.24608e-17
8405.52300 1.24619e-17
8407.51270 1.27220e-17
8409.49230 1.27025e-17
8411.48200 1.24429e-17
8413.46160 1.28154e-17
8415.45130 1.25700e-17
8417.43090 1.26396e-17
8419.42060 1.29273e-17
8421.40020 1.29177e-17
8423.38990 1.27881e-17
8425.36950 1.29871e-17
8427.35920 1.29722e-17
8429.33880 1.29647e-17
8431.32850 1.29883e-17
8433.31820 1.29438e-17
8435.29780 1.26617e-17
8437.28750 1.29447e-17
8439.26710 1.29282e-17
8441.25680 1.31003e-17
8443.23640 1.29886e-17
8445.22610 1.30752e-17
8447.20570 1.29742e-17
8449.19540 1.31436e-17
8451.17500 1.32792e-17
8453.16470 1.32128e-17
8455.14430 1.32537e-17
8457.13400 1.33017e-17
8459.11360 1.34072e-17
8461.10330 1.34663e-17
8463.09300 1.33564e-17
8465.07260 1.35931e-17
8467.06230 1.33811e-17
8469.04190 1.37618e-17
8471.03160 1.37484e-17
8473.01120 1.33609e-17
8475.00090 1.34847e-17
8476.98050 1.35636e-17
8478.97020 1.36408e-17
8480.94980 1.34370e-17
8482.93950 1.33988e-17
8484.91910 1.34799e-17
8486.90880 1.34484e-17
8488.88840 1.32977e-17
8490.87810 1.33161e-17
8492.86780 1.35461e-17
8494.84740 1.34366e-17
8496.83710 1.34362e-17
8498.81670 1.36881e-17
8500.80640 1.37404e-17
8502.78600 1.35397e-17
8504.77570 1.33775e-17
8506.75530 1.38533e-17
8508.74500 1.35931e-17
8510.72460 1.35386e-17
8512.71430 1.37560e-17
8514.69390 1.36520e-17
8516.68360 1.33197e-17
8518.67330 1.36018e-17
8520.65290 1.37821e-17
8522.63250 1.37876e-17
8524.62220 1.41421e-17
8526.61190 1.39455e-17
8528.59150 1.37212e-17
8530.58120 1.39088e-17
8532.56080 1.39608e-17
8534.55050 1.42069e-17
8536.53010 1.39010e-17
8538.51980 1.38324e-17
8540.49940 1.42306e-17
8542.48910 1.41005e-17
8544.46870 1.41648e-17
8546.45840 1.40781e-17
8548.43800 1.39965e-17
8550.42770 1.40851e-17
8552.40730 1.42117e-17
8554.39700 1.46223e-17
8556.38670 1.46031e-17
8558.36630 1.43113e-17
8560.35600 1.41502e-17
8562.33560 1.41878e-17
8564.32530 1.43913e-17
8566.30490 1.43119e-17
8568.29460 1.42489e-17
8570.27420 1.40279e-17
8572.26390 1.40966e-17
8574.24350 1.40962e-17
8576.23320 1.39905e-17
8578.21280 1.40145e-17
8580.20250 1.43444e-17
8582.18210 1.42795e-17
8584.17180 1.42350e-17
8586.15140 1.43038e-17
8588.14110 1.43847e-17
8590.13080 1.44827e-17
8592.11040 1.42962e-17
8594.10010 1.43474e-17
8596.07970 1.44125e-17
8598.06940 1.42786e-17
8600.04900 1.44479e-17
8602.03870 1.45044e-17
8604.01830 1.43898e-17
8606.00800 1.45297e-17
8607.98760 1.45369e-17
8609.97730 1.43256e-17
8611.95690 1.43906e-17
8613.94660 1.44184e-17
8615.92620 1.43289e-17
8617.91590 1.41719e-17
8619.89550 1.40820e-17
8621.88520 1.39958e-17
8623.87490 1.40719e-17
8625.85450 1.42182e-17
8627.84420 1.40526e-17
8629.82380 1.41730e-17
8631.81350 1.42075e-17
8633.79310 1.41180e-17
8635.78280 1.38396e-17
8637.76240 1.36358e-17
8639.75210 1.36599e-17
8641.73170 1.36875e-17
8643.72140 1.36134e-17
8645.70100 1.35614e-17
8647.69070 1.35108e-17
8649.68040 1.32398e-17
8651.66000 1.35462e-17
8653.64970 1.36814e-17
8655.62930 1.34777e-17
8657.61900 1.35038e-17
8659.59860 1.32563e-17
8661.58830 1.32149e-17
8663.56790 1.32570e-17
8665.55760 1.33677e-17
8667.53720 1.32113e-17
8669.52690 1.30759e-17
8671.50650 1.32689e-17
8673.49620 1.33343e-17
8675.47580 1.31506e-17
8677.46550 1.29063e-17
8679.44510 1.29929e-17
8681.43480 1.30868e-17
8683.42450 1.31290e-17
8685.40410 1.28626e-17
8687.39380 1.28895e-17
8689.37340 1.30247e-17
8691.36310 1.28545e-17
8693.34270 1.27106e-17
8695.33240 1.29818e-17
8697.31200 1.29775e-17
8699.30170 1.26743e-17
8701.28130 1.28774e-17
8703.27100 1.28314e-17
8705.25060 1.24359e-17
8707.24030 1.21004e-17
8709.23000 1.22396e-17
8711.20960 1.25783e-17
8713.18920 1.25168e-17
8715.17890 1.23285e-17
8717.16860 1.22776e-17
8719.14820 1.26156e-17
8721.13790 1.25042e-17
8723.11750 1.23245e-17
8725.10720 1.25533e-17
8727.08680 1.24048e-17
8729.07650 1.22098e-17
8731.05610 1.23713e-17
8733.04580 1.22694e-17
8735.02540 1.20971e-17
8737.01510 1.19563e-17
8738.99470 1.19139e-17
8740.98440 1.19577e-17
8742.96400 1.21602e-17
8744.95370 1.20607e-17
8746.93330 1.20717e-17
8748.92300 1.21727e-17
8750.91270 1.23403e-17
8752.89230 1.23952e-17
8754.88200 1.24510e-17
8756.86160 1.22240e-17
8758.85130 1.21143e-17
8760.83090 1.21265e-17
8762.82060 1.16458e-17
8764.80020 1.20636e-17
8766.78990 1.20095e-17
8768.76950 1.18809e-17
8770.75920 1.21053e-17
8772.73880 1.19795e-17
8774.72850 1.20578e-17
8776.70810 1.19806e-17
8778.69780 1.19687e-17
8780.68750 1.21766e-17
8782.66710 1.21308e-17
8784.65680 1.17726e-17
8786.63640 1.18333e-17
8788.62610 1.18269e-17
8790.60570 1.16501e-17
8792.59540 1.16029e-17
8794.57500 1.14998e-17
8796.56470 1.18003e-17
8798.54430 1.16891e-17
8800.53400 1.15155e-17
8802.51360 1.14214e-17
8804.50330 1.13541e-17
8806.48290 1.15829e-17
8808.47260 1.13848e-17
8810.46230 1.18686e-17
8812.44190 1.18793e-17
8814.43160 1.13257e-17
8816.41120 1.10340e-17
8818.40090 1.12177e-17
8820.38050 1.12234e-17
8822.37020 1.11928e-17
8824.34980 1.11552e-17
8826.33950 1.14077e-17
8828.31910 1.14343e-17
8830.30880 1.12995e-17
8832.28840 1.14807e-17
8834.27810 1.13598e-17
8836.26780 1.11519e-17
8838.24740 1.12919e-17
8840.23710 1.13948e-17
8842.21670 1.13958e-17
8844.20640 1.12900e-17
8846.18600 1.12874e-17
8848.17570 1.14396e-17
8850.15530 1.14001e-17
8852.14500 1.14141e-17
8854.12460 1.12842e-17
8856.11430 1.11164e-17
8858.09390 1.12714e-17
8860.08360 1.11885e-17
8862.06320 1.15372e-17
8864.05290 1.16177e-17
8866.03250 1.12937e-17
8868.02220 1.15431e-17
8870.01190 1.12884e-17
8871.99150 1.12498e-17
8873.98120 1.10865e-17
8875.96080 1.11890e-17
8877.95050 1.14770e-17
8879.93010 1.12368e-17
8881.91980 1.13609e-17
8883.89940 1.15447e-17
8885.88910 1.15500e-17
8887.86870 1.14334e-17
8889.85840 1.14502e-17
8891.83800 1.14623e-17
8893.82770 1.12229e-17
8895.80730 1.11160e-17
8897.79700 1.12013e-17
8899.78670 1.14353e-17
8901.76630 1.12094e-17
8903.74590 1.15127e-17
8905.73560 1.16393e-17
8907.72530 1.13925e-17
8909.70490 1.16960e-17
8911.69460 1.14785e-17
8913.67420 1.14075e-17
8915.66390 1.13308e-17
8917.64350 1.11348e-17
8919.63320 1.08612e-17
8921.61280 1.09717e-17
8923.60250 1.10094e-17
8925.58210 1.08232e-17
8927.57180 1.09219e-17
8929.55140 1.10304e-17
8931.54110 1.10344e-17
8933.53080 1.11353e-17
8935.51040 1.10325e-17
8937.49000 1.13094e-17
8939.47970 1.11658e-17
8941.46940 1.08743e-17
8943.44900 1.08378e-17
8945.43870 1.06769e-17
8947.41830 1.06644e-17
8949.40800 1.06729e-17
8951.38760 1.05547e-17
8953.37730 1.01918e-17
8955.35690 1.02738e-17
8957.34660 1.04748e-17
8959.32620 1.07333e-17
8961.31590 1.03231e-17
8963.29550 9.60920e-18
8965.28520 9.52866e-18
8967.27490 9.88125e-18
8969.25450 9.82882e-18
8971.24420 9.58439e-18
8973.22380 9.36260e-18
8975.21350 9.81097e-18
8977.19310 1.03807e-17
8979.18280 9.87997e-18
8981.16240 9.42088e-18
8983.15210 9.69749e-18
8985.13170 9.25568e-18
8987.12140 8.35954e-18
8989.10100 7.94578e-18
8991.09070 8.11009e-18
8993.07030 9.09521e-18
8995.06000 9.98454e-18
8997.04970 1.02579e-17
8999.02930 9.70092e-18
9001.01900 8.84252e-18
9002.99860 8.68467e-18
9004.98830 8.82144e-18
9006.96790 8.97504e-18
9008.95760 9.27016e-18
9010.93720 9.47154e-18
9012.92690 9.37689e-18
9014.90650 9.22785e-18
9016.89620 8.88492e-18
9018.87580 8.94585e-18
9020.86550 9.44368e-18
9022.84510 8.94272e-18
9024.83480 8.48238e-18
9026.82450 8.85723e-18
9028.80410 9.17985e-18
9030.79380 9.43076e-18
9032.77340 9.41451e-18
9034.76310 9.68942e-18
9036.74270 9.97356e-18
9038.73240 9.62015e-18
9040.71200 9.66051e-18
9042.70170 9.68774e-18
9044.68130 9.72766e-18
9046.67100 9.84083e-18
9048.65060 9.69038e-18
9050.64030 9.42648e-18
9052.61990 9.16001e-18
9054.60960 9.40908e-18
9056.58920 9.86312e-18
9058.57890 9.75689e-18
9060.56860 9.24448e-18
9062.54820 9.19221e-18
9064.53790 9.33315e-18
9066.51750 9.36506e-18
9068.50720 8.94525e-18
9070.48680 8.37006e-18
9072.47650 8.36233e-18
9074.45610 8.59456e-18
9076.44580 9.15943e-18
9078.42540 9.06598e-18
9080.41510 8.54695e-18
9082.39470 9.13347e-18
9084.38440 9.27054e-18
9086.36400 8.99854e-18
9088.35370 8.82290e-18
9090.33330 8.98113e-18
9092.32300 9.14694e-18
9094.30260 9.07486e-18
9096.29230 9.06183e-18
9098.28200 8.88882e-18
9100.26160 9.05063e-18
9102.25130 9.12254e-18
9104.23090 9.09269e-18
9106.22060 9.04151e-18
9108.20020 8.88577e-18
9110.18990 9.34406e-18
9112.16950 9.61784e-18
9114.15920 9.51758e-18
9116.13880 9.17240e-18
9118.12850 8.76107e-18
9120.10810 8.90243e-18
9122.09780 9.71034e-18
9124.08750 1.00397e-17
9126.06710 9.63539e-18
9128.05680 9.25776e-18
9130.03640 8.61847e-18
9132.02610 8.37469e-18
9134.00570 8.41217e-18
9135.99540 8.24061e-18
9137.97500 8.53188e-18
9139.96470 9.37370e-18
9141.94430 9.73605e-18
9143.93400 9.70235e-18
9145.91360 9.76526e-18
9147.90330 9.70079e-18
9149.88290 9.31323e-18
9151.87260 8.63411e-18
9153.86230 7.99229e-18
9155.84190 8.12803e-18
9157.83160 8.84300e-18
9159.81120 9.75481e-18
9161.80090 1.14402e-17
9163.78050 1.16862e-17
9165.77020 1.14744e-17
9167.74980 1.01039e-17
9169.73950 9.48181e-18
9171.71910 9.18732e-18
9173.70880 8.51597e-18
9175.68840 8.12736e-18
9177.67810 8.48150e-18
9179.65770 8.98945e-18
9181.64740 8.98460e-18
9183.63710 8.99804e-18
9185.61670 9.31504e-18
9187.60640 9.47647e-18
9189.58600 9.43727e-18
9191.57570 9.30967e-18
9193.55530 9.23761e-18
9195.54500 8.88480e-18
9197.52460 9.16614e-18
9199.51430 9.37506e-18
9201.49390 9.59293e-18
9203.48360 9.65357e-18
9205.46320 9.38905e-18
9207.45290 9.48833e-18
9209.43250 9.35670e-18
9211.42220 9.29571e-18
9213.40180 9.16811e-18
9215.39150 9.22028e-18
9217.38120 8.96436e-18
9219.36080 9.20515e-18
9221.34040 9.47490e-18
9223.33010 9.22989e-18
9225.31980 8.95870e-18
9227.29940 9.21890e-18
9229.28910 9.32046e-18
9231.26870 8.96544e-18
9233.25840 9.10368e-18
9235.23800 9.10656e-18
9237.22770 9.10835e-18
9239.20730 9.17115e-18
9241.19700 9.06376e-18
9243.17660 8.74827e-18
9245.16630 8.62583e-18
9247.14590 8.83214e-18
9249.13560 8.80467e-18
9251.12530 8.83277e-18
9253.10490 8.88292e-18
9255.09460 8.72365e-18
9257.07420 9.08265e-18
9259.06390 9.02956e-18
9261.04350 8.51396e-18
9263.03320 8.76568e-18
9265.01280 9.06848e-18
9267.00250 8.88400e-18
9268.98210 8.85237e-18
9270.97180 8.60540e-18
9272.95140 8.27965e-18
9274.94110 8.30652e-18
9276.92070 8.16018e-18
9278.91040 7.85423e-18
9280.89000 7.75342e-18
9282.87970 8.07443e-18
9284.86940 8.00628e-18
9286.84900 7.83447e-18
9288.83870 7.91317e-18
9290.81830 7.90893e-18
9292.80800 7.67698e-18
9294.78760 7.03595e-18
9296.77730 6.69184e-18
9298.75690 6.84588e-18
9300.74660 6.99813e-18
9302.72620 7.03995e-18
9304.71590 7.27206e-18
9306.69550 7.08212e-18
9308.68520 6.44921e-18
9310.66480 6.23464e-18
9312.65450 6.63055e-18
9314.64420 5.93100e-18
9316.62380 4.94107e-18
9318.61350 5.18682e-18
9320.59310 5.79915e-18
9322.58280 5.55027e-18
9324.56240 4.93804e-18
9326.55210 5.27911e-18
9328.53170 6.16773e-18
9330.52140 6.44550e-18
9332.50100 5.78586e-18
9334.49070 4.66370e-18
9336.47030 4.50001e-18
9338.46000 4.70396e-18
9340.43960 4.66690e-18
9342.42930 4.10498e-18
9344.41900 3.40218e-18
9346.39860 4.38090e-18
9348.38830 6.16152e-18
9350.36790 6.62686e-18
9352.35760 5.69202e-18
9354.33720 4.69878e-18
9356.32690 4.47816e-18
9358.30650 4.75692e-18
9360.29620 5.50154e-18
9362.27580 6.23484e-18
9364.26550 5.79826e-18
9366.24510 5.16188e-18
9368.23480 4.66222e-18
9370.21440 4.11895e-18
9372.20410 4.44222e-18
9374.19380 5.14991e-18
9376.17340 5.99783e-18
9378.16310 5.40103e-18
9380.14270 4.55572e-18
9382.13240 5.18152e-18
9384.11200 5.84557e-18
9386.10170 5.78997e-18
9388.08130 5.87376e-18
9390.07100 6.47230e-18
9392.05060 7.06183e-18
9394.04030 7.08248e-18
9396.01990 6.94566e-18
9398.00960 6.62168e-18
9399.98920 6.21897e-18
9401.97890 6.19003e-18
9403.95850 6.61915e-18
9405.94820 6.80714e-18
9407.93790 6.33091e-18
9409.91750 6.05822e-18
9411.89710 6.00900e-18
9413.88680 6.55283e-18
9415.87650 6.45305e-18
9417.85610 6.34011e-18
9419.84580 6.07881e-18
9421.82540 6.24487e-18
9423.81510 6.25588e-18
9425.79470 5.27666e-18
9427.78440 4.47843e-18
9429.76400 4.50779e-18
9431.75370 5.74494e-18
9433.73330 6.85298e-18
9435.72300 6.72829e-18
9437.70260 5.86196e-18
9439.69230 4.51952e-18
9441.68200 3.80400e-18
9443.66160 4.21831e-18
9445.65130 5.38252e-18
9447.63090 6.38878e-18
9449.62060 6.64163e-18
9451.60020 6.25866e-18
9453.58990 5.69279e-18
9455.56950 5.15828e-18
9457.55920 4.95057e-18
9459.53880 4.93065e-18
9461.52850 5.21869e-18
9463.50810 5.71205e-18
9465.49780 6.00746e-18
9467.47740 5.73248e-18
9469.46710 5.24240e-18
9471.45680 5.43365e-18
9473.43640 5.67853e-18
9475.42610 5.40379e-18
9477.40570 5.74504e-18
9479.39540 5.87475e-18
9481.37500 5.06620e-18
9483.36470 5.14276e-18
9485.34430 6.29243e-18
9487.33400 6.72316e-18
9489.31360 6.91134e-18
9491.30330 6.59747e-18
9493.28290 5.40336e-18
9495.27260 4.70853e-18
9497.25220 4.67492e-18
9499.24190 4.43274e-18
9501.23160 4.20527e-18
9503.21120 5.35918e-18
9505.20090 6.56632e-18
9507.18050 7.06954e-18
9509.17020 7.19551e-18
9511.14980 6.98119e-18
9513.13950 6.71589e-18
9515.11910 6.14533e-18
9517.10880 5.38953e-18
9519.08840 4.98064e-18
9521.07810 4.76259e-18
9523.05770 4.74306e-18
9525.04740 5.33832e-18
9527.02700 5.43359e-18
9529.01670 5.51161e-18
9530.99630 6.13623e-18
9532.98600 6.66931e-18
9534.97570 6.40176e-18
9536.95530 6.28701e-18
9538.94500 6.31361e-18
9540.92460 6.32997e-18
9542.91430 5.54302e-18
9544.89390 5.20264e-18
9546.88360 5.60767e-18
9548.86320 6.04490e-18
9550.85290 6.22943e-18
9552.83250 5.58841e-18
9554.82220 5.12769e-18
9556.80180 5.31304e-18
9558.79150 5.93454e-18
9560.77110 6.49733e-18
9562.76080 6.41102e-18
9564.74040 5.54600e-18
9566.73010 5.34868e-18
9568.71980 5.47164e-18
9570.69940 5.82769e-18
9572.68910 6.46273e-18
9574.66870 6.69529e-18
9576.65840 6.74374e-18
9578.63800 6.33082e-18
9580.62770 5.80834e-18
9582.60730 6.15929e-18
9584.59700 6.77040e-18
9586.57660 6.34549e-18
9588.56630 5.58625e-18
9590.54590 5.31461e-18
9592.53560 5.40505e-18
9594.51520 5.88035e-18
9596.50490 5.99266e-18
9598.49460 6.00944e-18
9600.47420 6.15697e-18
9602.46390 6.28163e-18
9604.44350 6.21005e-18
9606.43320 5.71314e-18
9608.41280 5.99315e-18
9610.40250 6.44558e-18
9612.38210 6.65541e-18
9614.37180 6.84968e-18
9616.35140 6.21881e-18
9618.34110 6.26675e-18
9620.32070 6.08126e-18
9622.31040 5.91766e-18
9624.29000 6.24390e-18
9626.27970 6.85824e-18
9628.25930 9.24801e-18
9630.24900 1.12899e-17
9632.23870 1.08640e-17
9634.21830 8.19432e-18
9636.20800 6.24652e-18
9638.18760 6.45694e-18
9640.17730 7.44927e-18
9642.15690 8.04443e-18
9644.14660 7.53394e-18
9646.12620 6.63712e-18
9648.11590 6.40683e-18
9650.09550 6.60775e-18
9652.08520 6.57198e-18
9654.06480 6.66358e-18
9656.05450 6.30275e-18
9658.03410 6.05658e-18
9660.02380 5.96683e-18
9662.01350 5.69436e-18
9663.99310 5.33125e-18
9665.98280 5.99373e-18
9667.96240 6.41262e-18
9669.95210 6.36551e-18
9671.93170 6.49029e-18
9673.92140 7.00665e-18
9675.90100 7.10817e-18
9677.89070 6.89179e-18
9679.87030 6.51631e-18
9681.86000 6.18434e-18
9683.83960 6.40762e-18
9685.82930 6.60396e-18
9687.80890 6.30204e-18
9689.79860 6.18656e-18
9691.78830 6.22903e-18
9693.76790 6.27977e-18
9695.75760 6.46911e-18
9697.73720 6.29985e-18
9699.72690 6.27196e-18
9701.70650 6.52907e-18
9703.69620 6.59430e-18
9705.67580 6.57936e-18
9707.66550 6.82689e-18
9709.64510 6.93031e-18
9711.63480 6.66162e-18
9713.61440 6.22371e-18
9715.60410 6.16657e-18
9717.58370 6.34293e-18
9719.57340 6.33960e-18
9721.55300 6.33868e-18
9723.54270 6.12198e-18
9725.53240 5.84853e-18
9727.51200 6.29497e-18
9729.50170 6.45394e-18
9731.48130 6.22139e-18
9733.47100 6.24037e-18
9735.45060 6.26155e-18
9737.44030 5.84956e-18
9739.41990 5.86483e-18
9741.40960 6.26351e-18
9743.38920 6.07324e-18
9745.37890 6.18157e-18
9747.35850 6.14107e-18
9749.34820 5.77157e-18
9751.32780 5.95594e-18
9753.31750 6.01919e-18
9755.29710 5.74716e-18
9757.28680 5.81655e-18
9759.27650 5.75993e-18
9761.25610 5.71378e-18
9763.24580 5.63818e-18
9765.22540 5.49900e-18
9767.21510 6.01738e-18
9769.19470 6.16866e-18
9771.18440 6.20404e-18
9773.16400 6.25427e-18
9775.15370 6.08440e-18
9777.13330 6.03877e-18
9779.12300 5.82765e-18
9781.10260 5.88587e-18
9783.09230 5.81161e-18
9785.07190 6.19278e-18
9787.06160 6.00343e-18
9789.04120 6.15131e-18
9791.03090 5.60064e-18
9793.02060 5.33986e-18
9795.00020 5.57598e-18
9796.98990 5.48456e-18
9798.96950 5.43028e-18
9800.95920 5.25881e-18
9802.93880 5.52996e-18
9804.92850 5.74276e-18
9806.90810 5.91351e-18
9808.89780 6.45534e-18
9810.87740 5.96778e-18
9812.86710 5.72441e-18
9814.84670 5.77313e-18
9816.83640 5.74505e-18
9818.82610 5.69315e-18
9820.80570 5.87620e-18
9822.79540 5.49015e-18
9824.77500 5.74426e-18
9826.76470 5.88611e-18
9828.74430 5.57565e-18
9830.73400 5.87296e-18
9832.71360 6.04374e-18
9834.70330 5.85830e-18
9836.68290 5.96388e-18
9838.67260 6.17346e-18
9840.65220 6.04084e-18
9842.64190 5.79735e-18
9844.62150 5.73069e-18
9846.61120 5.62013e-18
9848.59080 5.37082e-18
9850.58050 5.42371e-18
9852.57020 5.12901e-18
9854.54980 5.09299e-18
9856.53950 5.61856e-18
9858.51910 5.65231e-18
9860.50880 5.55079e-18
9862.48840 5.51516e-18
9864.47810 5.48624e-18
9866.45770 5.45359e-18
9868.44740 5.66433e-18
9870.42700 5.84218e-18
9872.41670 5.62083e-18
9874.39630 5.33587e-18
9876.38600 5.17294e-18
9878.36560 4.92334e-18
9880.35530 4.75513e-18
9882.34500 4.83401e-18
9884.32460 5.04959e-18
9886.31430 5.21290e-18
9888.29390 5.33908e-18
9890.28360 5.54584e-18
9892.26320 5.25265e-18
9894.25290 5.11514e-18
9896.23250 5.24715e-18
9898.22220 5.42198e-18
9900.20180 5.57472e-18
9902.19150 5.09069e-18
9904.17110 4.87590e-18
9906.16080 5.00894e-18
9908.14040 5.17775e-18
9910.13010 4.88783e-18
9912.10970 4.66165e-18
9914.09940 4.96550e-18
9916.08910 5.16124e-18
9918.06870 5.18880e-18
9920.05840 5.01228e-18
9922.03800 5.24714e-18
9924.02770 5.36369e-18
9926.00730 5.13727e-18
9927.99700 5.14416e-18
9929.97660 5.17564e-18
9931.96630 5.14667e-18
9933.94590 4.87210e-18
9935.93560 4.86919e-18
9937.91520 5.07456e-18
9939.90490 4.89117e-18
9941.88450 5.55169e-18
9943.87420 5.91198e-18
9945.85380 5.21193e-18
9947.84350 4.78184e-18
9949.83320 4.95800e-18
9951.81280 5.20717e-18
9953.80250 5.27978e-18
9955.78210 5.26884e-18
9957.77180 5.28501e-18
9959.75140 4.87089e-18
9961.74110 5.00182e-18
9963.72070 4.74338e-18
9965.71040 4.59542e-18
9967.69000 4.85089e-18
9969.67970 4.65339e-18
9971.65930 4.81859e-18
9973.64900 5.00201e-18
9975.62860 4.83812e-18
9977.61830 4.89611e-18
9979.60800 4.87623e-18
9981.58760 5.01458e-18
9983.57730 5.18515e-18
9985.55690 4.87827e-18
9987.54660 4.87185e-18
9989.52620 4.66007e-18
9991.51590 4.77795e-18
9993.49550 4.73898e-18
9995.48520 4.62414e-18
9997.46480 4.65991e-18
9999.45450 4.49718e-18
