# wavelength flux
3800.00380 1.18763e-17
3803.04390 1.14320e-17
3806.08400 1.15509e-17
3809.12410 1.21551e-17
3812.16420 1.21833e-17
3815.20430 1.16394e-17
3818.24440 1.22538e-17
3821.29460 1.21343e-17
3824.33470 1.24269e-17
3827.37480 1.25198e-17
3830.41490 1.19744e-17
3833.45500 1.19606e-17
3836.49510 1.26522e-17
3839.53520 1.24857e-17
3842.57530 1.26992e-17
3845.62550 1.25170e-17
3848.66560 1.24821e-17
3851.70570 1.24026e-17
3854.74580 1.23274e-17
3857.78590 1.26764e-17
3860.82600 1.31624e-17
3863.86610 1.26051e-17
3866.90620 1.28707e-17
3869.95640 1.26410e-17
3872.99650 1.29532e-17
3876.03660 1.31685e-17
3879.07670 1.31764e-17
3882.11680 1.25751e-17
3885.15690 1.34841e-17
3888.19700 1.34553e-17
3891.24720 1.30719e-17
3894.28730 1.37380e-17
3897.32740 1.27649e-17
3900.36750 1.31615e-17
3903.40760 1.29463e-17
3906.44770 1.29883e-17
3909.48780 1.34445e-17
3912.52790 1.38730e-17
3915.57810 1.34124e-17
3918.61820 1.32504e-17
3921.65830 1.35153e-17
3924.69840 1.43752e-17
3927.73850 1.52511e-17
3930.77860 1.37562e-17
3933.81870 1.19245e-17
3936.85880 1.24551e-17
3939.90900 1.38128e-17
3942.94910 1.40700e-17
3945.98920 1.43936e-17
3949.02930 1.39560e-17
3952.06940 1.37120e-17
3955.10950 1.41587e-17
3958.14960 1.42831e-17
3961.19980 1.34515e-17
3964.23990 1.32752e-17
3967.28000 1.23157e-17
3970.32010 1.22942e-17
3973.36020 1.26937e-17
3976.40030 1.32242e-17
3979.44040 1.33576e-17
3982.48050 1.40399e-17
3985.53070 1.38401e-17
3988.57080 1.40306e-17
3991.61090 1.37398e-17
3994.65100 1.38029e-17
3997.69110 1.35358e-17
4000.73120 1.39730e-17
4003.77130 1.33063e-17
4006.81140 1.30383e-17
4009.86160 1.32881e-17
4012.90170 1.41085e-17
4015.94180 1.37284e-17
4018.98190 1.39625e-17
4022.02200 1.41538e-17
4025.06210 1.37815e-17
4028.10220 1.39281e-17
4031.14230 1.42638e-17
4034.19250 1.36490e-17
4037.23260 1.39143e-17
4040.27270 1.43483e-17
4043.31280 1.37180e-17
4046.35290 1.39051e-17
4049.39300 1.34332e-17
4052.43310 1.41957e-17
4055.48330 1.40398e-17
4058.52340 1.41247e-17
4061.56350 1.36157e-17
4064.60360 1.42080e-17
4067.64370 1.36235e-17
4070.68380 1.38790e-17
4073.72390 1.41866e-17
4076.76400 1.38630e-17
4079.81420 1.41611e-17
4082.85430 1.38425e-17
4085.89440 1.37611e-17
4088.93450 1.35366e-17
4091.97460 1.40818e-17
4095.01470 1.37826e-17
4098.05480 1.41484e-17
4101.09490 1.39383e-17
4104.14510 1.42975e-17
4107.18520 1.48495e-17
4110.22530 1.43111e-17
4113.26540 1.40485e-17
4116.30550 1.44540e-17
4119.34560 1.38281e-17
4122.38570 1.35502e-17
4125.42580 1.43457e-17
4128.47600 1.40892e-17
4131.51610 1.41217e-17
4134.55620 1.42623e-17
4137.59630 1.41104e-17
4140.63640 1.56004e-17
4143.67650 1.65315e-17
4146.71660 1.47535e-17
4149.76680 1.38458e-17
4152.80690 1.37261e-17
4155.84700 1.36524e-17
4158.88710 1.35827e-17
4161.92720 1.40257e-17
4164.96730 1.43279e-17
4168.00740 1.47583e-17
4171.04750 1.41944e-17
4174.09770 1.41925e-17
4177.13780 1.41925e-17
4180.17790 1.43703e-17
4183.21800 1.44592e-17
4186.25810 1.44816e-17
4189.29820 1.43301e-17
4192.33830 1.43221e-17
4195.37840 1.38706e-17
4198.42860 1.38126e-17
4201.46870 1.40587e-17
4204.50880 1.44563e-17
4207.54890 1.47047e-17
4210.58900 1.48802e-17
4213.62910 1.44308e-17
4216.66920 1.42106e-17
4219.71940 1.44218e-17
4222.75950 1.48426e-17
4225.79960 1.42668e-17
4228.83970 1.45546e-17
4231.87980 1.50545e-17
4234.91990 1.47313e-17
4237.96000 1.42236e-17
4241.00010 1.49056e-17
4244.05030 1.49614e-17
4247.09040 1.52422e-17
4250.13050 1.53844e-17
4253.17060 1.57573e-17
4256.21070 1.54655e-17
4259.25080 1.58663e-17
4262.29090 1.58309e-17
4265.33100 1.52409e-17
4268.38120 1.54283e-17
4271.42130 1.52257e-17
4274.46140 1.56905e-17
4277.50150 1.59109e-17
4280.54160 1.57657e-17
4283.58170 1.57615e-17
4286.62180 1.57685e-17
4289.67200 1.58316e-17
4292.71210 1.59448e-17
4295.75220 1.60726e-17
4298.79230 1.57206e-17
4301.83240 1.59588e-17
4304.87250 1.58539e-17
4307.91260 1.59372e-17
4310.95270 1.59663e-17
4314.00290 1.59236e-17
4317.04300 1.59575e-17
4320.08310 1.61725e-17
4323.12320 1.62356e-17
4326.16330 1.64791e-17
4329.20340 1.63381e-17
4332.24350 1.67955e-17
4335.28360 1.65819e-17
4338.33380 1.64016e-17
4341.37390 1.68139e-17
4344.41400 1.69658e-17
4347.45410 1.66896e-17
4350.49420 1.68481e-17
4353.53430 1.67130e-17
4356.57440 1.66950e-17
4359.62460 1.64683e-17
4362.66470 1.65054e-17
4365.70480 1.68844e-17
4368.74490 1.68382e-17
4371.78500 1.68777e-17
4374.82510 1.67611e-17
4377.86520 1.67510e-17
4380.90530 1.67409e-17
4383.95550 1.67308e-17
4386.99560 1.67206e-17
4390.03570 1.67105e-17
4393.07580 1.67004e-17
4396.11590 1.66903e-17
4399.15600 1.66802e-17
4402.19610 1.66701e-17
4405.23620 1.66599e-17
4408.28640 1.66498e-17
4411.32650 1.66397e-17
4414.36660 1.66295e-17
4417.40670 1.66194e-17
4420.44680 1.66093e-17
4423.48690 1.65991e-17
4426.52700 1.65890e-17
4429.56710 1.65788e-17
4432.61730 1.65687e-17
4435.65740 1.65586e-17
4438.69750 1.65484e-17
4441.73760 1.64468e-17
4444.77770 1.61394e-17
4447.81780 1.57350e-17
4450.85790 1.58383e-17
4453.90810 1.60262e-17
4456.94820 1.57079e-17
4459.98830 1.55460e-17
4463.02840 1.53363e-17
4466.06850 1.52607e-17
4469.10860 1.52893e-17
4472.14870 1.53491e-17
4475.18880 1.53114e-17
4478.23900 1.54673e-17
4481.27910 1.55175e-17
4484.31920 1.57113e-17
4487.35930 1.62687e-17
4490.39940 1.59713e-17
4493.43950 1.57335e-17
4496.47960 1.59069e-17
4499.51970 1.59417e-17
4502.56990 1.59269e-17
4505.61000 1.61666e-17
4508.65010 1.61387e-17
4511.69020 1.59707e-17
4514.73030 1.63320e-17
4517.77040 1.63606e-17
4520.81050 1.64231e-17
4523.85060 1.64507e-17
4526.90080 1.58996e-17
4529.94090 1.59570e-17
4532.98100 1.60417e-17
4536.02110 1.55503e-17
4539.06120 1.57789e-17
4542.10130 1.59566e-17
4545.14140 1.61383e-17
4548.19160 1.57823e-17
4551.23170 1.57638e-17
4554.27180 1.59244e-17
4557.31190 1.59781e-17
4560.35200 1.61182e-17
4563.39210 1.58795e-17
4566.43220 1.59768e-17
4569.47230 1.62227e-17
4572.52250 1.61923e-17
4575.56260 1.61093e-17
4578.60270 1.60612e-17
4581.64280 1.58220e-17
4584.68290 1.60430e-17
4587.72300 1.60099e-17
4590.76310 1.57812e-17
4593.80320 1.60228e-17
4596.85340 1.59716e-17
4599.89350 1.61160e-17
4602.93360 1.59591e-17
4605.97370 1.59871e-17
4609.01380 1.60368e-17
4612.05390 1.59114e-17
4615.09400 1.56186e-17
4618.14420 1.58050e-17
4621.18430 1.55672e-17
4624.22440 1.53613e-17
4627.26450 1.55732e-17
4630.30460 1.57280e-17
4633.34470 1.56877e-17
4636.38480 1.54159e-17
4639.42490 1.53166e-17
4642.47510 1.54728e-17
4645.51520 1.54716e-17
4648.55530 1.53289e-17
4651.59540 1.56620e-17
4654.63550 1.55267e-17
4657.67560 1.56371e-17
4660.71570 1.58031e-17
4663.75580 1.54399e-17
4666.80600 1.54379e-17
4669.84610 1.51734e-17
4672.88620 1.53301e-17
4675.92630 1.57583e-17
4678.96640 1.52510e-17
4682.00650 1.53696e-17
4685.04660 1.52661e-17
4688.09680 1.51031e-17
4691.13690 1.53293e-17
4694.17700 1.53114e-17
4697.21710 1.55287e-17
4700.25720 1.56874e-17
4703.29730 1.54256e-17
4706.33740 1.54175e-17
4709.37750 1.56370e-17
4712.42770 1.54602e-17
4715.46780 1.53841e-17
4718.50790 1.52743e-17
4721.54800 1.55303e-17
4724.58810 1.55769e-17
4727.62820 1.53707e-17
4730.66830 1.52065e-17
4733.70840 1.53114e-17
4736.75860 1.55606e-17
4739.79870 1.54584e-17
4742.83880 1.54523e-17
4745.87890 1.52013e-17
4748.91900 1.53255e-17
4751.95910 1.48915e-17
4754.99920 1.53096e-17
4758.04940 1.57153e-17
4761.08950 1.52944e-17
4764.12960 1.54677e-17
4767.16970 1.53013e-17
4770.20980 1.54792e-17
4773.24990 1.54955e-17
4776.29000 1.53647e-17
4779.33010 1.53063e-17
4782.38030 1.55770e-17
4785.42040 1.56502e-17
4788.46050 1.55685e-17
4791.50060 1.57674e-17
4794.54070 1.58349e-17
4797.58080 1.59030e-17
4800.62090 1.55423e-17
4803.66100 1.59203e-17
4806.71120 1.57650e-17
4809.75130 1.58926e-17
4812.79140 1.61394e-17
4815.83150 1.60718e-17
4818.87160 1.61081e-17
4821.91170 1.64018e-17
4824.95180 1.60757e-17
4827.99190 1.59811e-17
4831.04210 1.61433e-17
4834.08220 1.63143e-17
4837.12230 1.62963e-17
4840.16240 1.65604e-17
4843.20250 1.65197e-17
4846.24260 1.64783e-17
4849.28270 1.66082e-17
4852.33290 1.66999e-17
4855.37300 1.64512e-17
4858.41310 1.64363e-17
4861.45320 1.67042e-17
4864.49330 1.66902e-17
4867.53340 1.64689e-17
4870.57350 1.67801e-17
4873.61360 1.68746e-17
4876.66380 1.69869e-17
4879.70390 1.66941e-17
4882.74400 1.70648e-17
4885.78410 1.69042e-17
4888.82420 1.70890e-17
4891.86430 1.71019e-17
4894.90440 1.71147e-17
4897.94450 1.71276e-17
4900.99470 1.71404e-17
4904.03480 1.71533e-17
4907.07490 1.71661e-17
4910.11500 1.71789e-17
4913.15510 1.71917e-17
4916.19520 1.72046e-17
4919.23530 1.72174e-17
4922.27540 1.72302e-17
4925.32560 1.72430e-17
4928.36570 1.72557e-17
4931.40580 1.72710e-17
4934.44590 1.75482e-17
4937.48600 1.78241e-17
4940.52610 1.78971e-17
4943.56620 1.76759e-17
4946.61640 1.78217e-17
4949.65650 1.78836e-17
4952.69660 1.77073e-17
4955.73670 1.81420e-17
4958.77680 1.82347e-17
4961.81690 1.79944e-17
4964.85700 1.82344e-17
4967.89710 1.81800e-17
4970.94730 1.83714e-17
4973.98740 1.84072e-17
4977.02750 1.85115e-17
4980.06760 1.84296e-17
4983.10770 1.80927e-17
4986.14780 1.82977e-17
4989.18790 1.83235e-17
4992.22800 1.83668e-17
4995.27820 1.84100e-17
4998.31830 1.84533e-17
5001.35840 1.84965e-17
5004.39850 1.85397e-17
5007.43860 1.85828e-17
5010.47870 1.86260e-17
5013.51880 1.86691e-17
5016.56900 1.87122e-17
5019.60910 1.87553e-17
5022.64920 1.87984e-17
5025.68930 1.88414e-17
5028.72940 1.88844e-17
5031.76950 1.89877e-17
5034.80960 1.89200e-17
5037.84970 1.85828e-17
5040.89990 1.86284e-17
5043.94000 1.86740e-17
5046.98010 1.87196e-17
5050.02020 1.87652e-17
5053.06030 1.88107e-17
5056.10040 1.88562e-17
5059.14050 1.89017e-17
5062.18060 1.89472e-17
5065.23080 1.89927e-17
5068.27090 1.90381e-17
5071.31100 1.90835e-17
5074.35110 1.91289e-17
5077.39120 1.91743e-17
5080.43130 1.95071e-17
5083.47140 1.92645e-17
5086.52160 1.93361e-17
5089.56170 1.93419e-17
5092.60180 1.95826e-17
5095.64190 1.94714e-17
5098.68200 1.89593e-17
5101.72210 1.92335e-17
5104.76220 1.96122e-17
5107.80230 1.92611e-17
5110.85250 1.93561e-17
5113.89260 1.94956e-17
5116.93270 1.94417e-17
5119.97280 1.93048e-17
5123.01290 1.95630e-17
5126.05300 1.94551e-17
5129.09310 1.93081e-17
5132.13320 1.94335e-17
5135.18340 1.95597e-17
5138.22350 1.96879e-17
5141.26360 1.94506e-17
5144.30370 1.96192e-17
5147.34380 1.97038e-17
5150.38390 2.01662e-17
5153.42400 1.96409e-17
5156.46410 1.94065e-17
5159.51430 1.99148e-17
5162.55440 2.00352e-17
5165.59450 1.95740e-17
5168.63460 1.97289e-17
5171.67470 1.93870e-17
5174.71480 1.96245e-17
5177.75490 1.97115e-17
5180.80510 1.94828e-17
5183.84520 1.94544e-17
5186.88530 1.96508e-17
5189.92540 1.94971e-17
5192.96550 1.95393e-17
5196.00560 1.98439e-17
5199.04570 1.95333e-17
5202.08580 1.93188e-17
5205.13600 1.92076e-17
5208.17610 1.93872e-17
5211.21620 1.92885e-17
5214.25630 1.94522e-17
5217.29640 1.87792e-17
5220.33650 1.89202e-17
5223.37660 1.88857e-17
5226.41670 1.87411e-17
5229.46690 1.89350e-17
5232.50700 1.88769e-17
5235.54710 1.87879e-17
5238.58720 1.88071e-17
5241.62730 1.87537e-17
5244.66740 1.89955e-17
5247.70750 1.88959e-17
5250.74760 1.89435e-17
5253.79780 1.92735e-17
5256.83790 1.87668e-17
5259.87800 1.85783e-17
5262.91810 1.86415e-17
5265.95820 1.90020e-17
5268.99830 1.86468e-17
5272.03840 1.83091e-17
5275.08860 1.85532e-17
5278.12870 1.83920e-17
5281.16880 1.83897e-17
5284.20890 1.84472e-17
5287.24900 1.84222e-17
5290.28910 1.81582e-17
5293.32920 1.80838e-17
5296.36930 1.83433e-17
5299.41950 1.83486e-17
5302.45960 1.83397e-17
5305.49970 1.81996e-17
5308.53980 1.84130e-17
5311.57990 1.81428e-17
5314.62000 1.80015e-17
5317.66010 1.83133e-17
5320.70020 1.81329e-17
5323.75040 1.82482e-17
5326.79050 1.79747e-17
5329.83060 1.80683e-17
5332.87070 1.81559e-17
5335.91080 1.78067e-17
5338.95090 1.80412e-17
5341.99100 1.82013e-17
5345.04120 1.78337e-17
5348.08130 1.81111e-17
5351.12140 1.77622e-17
5354.16150 1.77295e-17
5357.20160 1.74573e-17
5360.24170 1.78655e-17
5363.28180 1.75512e-17
5366.32190 1.75761e-17
5369.37210 1.75264e-17
5372.41220 1.76355e-17
5375.45230 1.75002e-17
5378.49240 1.73353e-17
5381.53250 1.73361e-17
5384.57260 1.74405e-17
5387.61270 1.71912e-17
5390.66290 1.69587e-17
5393.70300 1.69273e-17
5396.74310 1.68940e-17
5399.78320 1.71724e-17
5402.82330 1.71948e-17
5405.86340 1.70960e-17
5408.90350 1.67487e-17
5411.94360 1.67932e-17
5414.99380 1.66317e-17
5418.03390 1.66637e-17
5421.07400 1.66179e-17
5424.11410 1.65905e-17
5427.15420 1.68983e-17
5430.19430 1.68454e-17
5433.23440 1.68791e-17
5436.27450 1.69667e-17
5439.32470 1.69547e-17
5442.36480 1.71293e-17
5445.40490 1.66834e-17
5448.44500 1.68153e-17
5451.48510 1.69234e-17
5454.52520 1.71412e-17
5457.56530 1.70857e-17
5460.60540 1.69006e-17
5463.65560 1.68566e-17
5466.69570 1.69593e-17
5469.73580 1.68327e-17
5472.77590 1.68981e-17
5475.81600 1.69992e-17
5478.85610 1.68051e-17
5481.89620 1.73226e-17
5484.94640 1.71335e-17
5487.98650 1.69977e-17
5491.02660 1.71511e-17
5494.06670 1.72632e-17
5497.10680 1.69526e-17
5500.14690 1.70152e-17
5503.18700 1.71195e-17
5506.22710 1.71367e-17
5509.27730 1.70467e-17
5512.31740 1.69780e-17
5515.35750 1.72629e-17
5518.39760 1.73262e-17
5521.43770 1.74085e-17
5524.47780 1.73437e-17
5527.51790 1.72246e-17
5530.55800 1.72715e-17
5533.60820 1.68139e-17
5536.64830 1.67529e-17
5539.68840 1.70018e-17
5542.72850 1.71016e-17
5545.76860 1.70733e-17
5548.80870 1.70425e-17
5551.84880 1.70865e-17
5554.88890 1.68440e-17
5557.93910 1.70995e-17
5560.97920 1.69190e-17
5564.01930 1.67548e-17
5567.05940 1.68517e-17
5570.09950 1.66687e-17
5573.13960 1.69662e-17
5576.17970 1.70389e-17
5579.22990 1.71841e-17
5582.27000 1.70730e-17
5585.31010 1.69273e-17
5588.35020 1.71315e-17
5591.39030 1.69229e-17
5594.43040 1.72868e-17
5597.47050 1.71734e-17
5600.51060 1.69741e-17
5603.56080 1.68587e-17
5606.60090 1.71147e-17
5609.64100 1.70958e-17
5612.68110 1.72517e-17
5615.72120 1.73089e-17
5618.76130 1.73213e-17
5621.80140 1.70767e-17
5624.84150 1.70382e-17
5627.89170 1.72889e-17
5630.93180 1.72606e-17
5633.97190 1.73218e-17
5637.01200 1.71397e-17
5640.05210 1.70246e-17
5643.09220 1.73291e-17
5646.13230 1.73031e-17
5649.17240 1.69656e-17
5652.22260 1.72147e-17
5655.26270 1.75190e-17
5658.30280 1.71805e-17
5661.34290 1.72147e-17
5664.38300 1.71919e-17
5667.42310 1.74637e-17
5670.46320 1.75582e-17
5673.51340 1.74274e-17
5676.55350 1.73958e-17
5679.59360 1.73203e-17
5682.63370 1.74326e-17
5685.67380 1.73713e-17
5688.71390 1.75111e-17
5691.75400 1.75226e-17
5694.79410 1.74046e-17
5697.84430 1.72890e-17
5700.88440 1.74549e-17
5703.92450 1.75515e-17
5706.96460 1.74946e-17
5710.00470 1.69442e-17
5713.04480 1.76641e-17
5716.08490 1.74586e-17
5719.12500 1.74668e-17
5722.17520 1.73359e-17
5725.21530 1.76484e-17
5728.25540 1.71400e-17
5731.29550 1.71527e-17
5734.33560 1.72185e-17
5737.37570 1.71664e-17
5740.41580 1.67025e-17
5743.46600 1.67306e-17
5746.50610 1.69966e-17
5749.54620 1.72216e-17
5752.58630 1.70393e-17
5755.62640 1.67915e-17
5758.66650 1.67891e-17
5761.70660 1.66912e-17
5764.74670 1.63684e-17
5767.79690 1.65630e-17
5770.83700 1.66142e-17
5773.87710 1.65557e-17
5776.91720 1.65131e-17
5779.95730 1.64679e-17
5782.99740 1.64903e-17
5786.03750 1.64176e-17
5789.07760 1.65274e-17
5792.12780 1.62990e-17
5795.16790 1.61206e-17
5798.20800 1.61056e-17
5801.24810 1.60258e-17
5804.28820 1.62281e-17
5807.32830 1.61949e-17
5810.36840 1.61251e-17
5813.40850 1.63081e-17
5816.45870 1.62027e-17
5819.49880 1.57706e-17
5822.53890 1.59810e-17
5825.57900 1.59504e-17
5828.61910 1.61377e-17
5831.65920 1.56842e-17
5834.69930 1.57245e-17
5837.74950 1.51858e-17
5840.78960 1.50385e-17
5843.82970 1.51268e-17
5846.86980 1.54356e-17
5849.90990 1.55587e-17
5852.95000 1.55295e-17
5855.99010 1.51412e-17
5859.03020 1.53118e-17
5862.08040 1.52373e-17
5865.12050 1.52070e-17
5868.16060 1.53631e-17
5871.20070 1.50311e-17
5874.24080 1.52290e-17
5877.28090 1.54434e-17
5880.32100 1.53797e-17
5883.37120 1.51172e-17
5886.41130 1.50380e-17
5889.45140 1.45263e-17
5892.49150 1.46078e-17
5895.53160 1.46618e-17
5898.57170 1.49010e-17
5901.61180 1.50760e-17
5904.65190 1.50759e-17
5907.70210 1.50759e-17
5910.74220 1.50759e-17
5913.78230 1.50759e-17
5916.82240 1.50758e-17
5919.86250 1.50758e-17
5922.90260 1.50758e-17
5925.94270 1.50758e-17
5928.98280 1.50758e-17
5932.03300 1.50758e-17
5935.07310 1.50759e-17
5938.11320 1.50759e-17
5941.15330 1.50759e-17
5944.19340 1.50759e-17
5947.23350 1.50759e-17
5950.27360 1.50760e-17
5953.31370 1.50760e-17
5956.36390 1.50761e-17
5959.40400 1.50761e-17
5962.44410 1.50762e-17
5965.48420 1.50762e-17
5968.52430 1.54804e-17
5971.56440 1.55008e-17
5974.60450 1.55434e-17
5977.65470 1.54901e-17
5980.69480 1.56421e-17
5983.73490 1.55126e-17
5986.77500 1.55487e-17
5989.81510 1.54499e-17
5992.85520 1.55393e-17
5995.89530 1.58311e-17
5998.93540 1.59519e-17
6001.98560 1.59140e-17
6005.02570 1.58166e-17
6008.06580 1.57882e-17
6011.10590 1.60288e-17
6014.14600 1.58689e-17
6017.18610 1.60114e-17
6020.22620 1.62915e-17
6023.26630 1.63111e-17
6026.31650 1.63629e-17
6029.35660 1.64211e-17
6032.39670 1.64798e-17
6035.43680 1.65226e-17
6038.47690 1.65135e-17
6041.51700 1.62953e-17
6044.55710 1.63169e-17
6047.60730 1.64501e-17
6050.64740 1.59865e-17
6053.68750 1.61829e-17
6056.72760 1.61995e-17
6059.76770 1.62139e-17
6062.80780 1.63514e-17
6065.84790 1.62441e-17
6068.88800 1.60647e-17
6071.93820 1.59543e-17
6074.97830 1.61515e-17
6078.01840 1.62760e-17
6081.05850 1.58216e-17
6084.09860 1.62668e-17
6087.13870 1.62065e-17
6090.17880 1.63226e-17
6093.21890 1.57742e-17
6096.26910 1.59609e-17
6099.30920 1.60832e-17
6102.34930 1.58977e-17
6105.38940 1.59393e-17
6108.42950 1.60638e-17
6111.46960 1.58182e-17
6114.50970 1.60086e-17
6117.54980 1.57788e-17
6120.60000 1.58610e-17
6123.64010 1.58775e-17
6126.68020 1.59212e-17
6129.72030 1.60169e-17
6132.76040 1.58150e-17
6135.80050 1.58335e-17
6138.84060 1.58032e-17
6141.89080 1.59002e-17
6144.93090 1.57576e-17
6147.97100 1.58086e-17
6151.01110 1.56279e-17
6154.05120 1.58088e-17
6157.09130 1.56240e-17
6160.13140 1.55716e-17
6163.17150 1.57783e-17
6166.22170 1.60060e-17
6169.26180 1.59751e-17
6172.30190 1.57510e-17
6175.34200 1.57480e-17
6178.38210 1.57317e-17
6181.42220 1.58442e-17
6184.46230 1.57520e-17
6187.50240 1.59716e-17
6190.55260 1.62440e-17
6193.59270 1.58937e-17
6196.63280 1.60725e-17
6199.67290 1.60540e-17
6202.71300 1.61348e-17
6205.75310 1.62431e-17
6208.79320 1.61640e-17
6211.83330 1.59813e-17
6214.88350 1.60679e-17
6217.92360 1.61953e-17
6220.96370 1.62044e-17
6224.00380 1.61077e-17
6227.04390 1.60466e-17
6230.08400 1.58437e-17
6233.12410 1.57257e-17
6236.17430 1.58982e-17
6239.21440 1.56538e-17
6242.25450 1.58543e-17
6245.29460 1.60110e-17
6248.33470 1.60209e-17
6251.37480 1.55739e-17
6254.41490 1.57330e-17
6257.45500 1.57124e-17
6260.50520 1.54443e-17
6263.54530 1.55217e-17
6266.58540 1.56039e-17
6269.62550 1.57308e-17
6272.66560 1.56743e-17
6275.70570 1.57233e-17
6278.74580 1.58039e-17
6281.78590 1.57775e-17
6284.83610 1.57913e-17
6287.87620 1.56717e-17
6290.91630 1.56403e-17
6293.95640 1.56531e-17
6296.99650 1.55201e-17
6300.03660 1.60032e-17
6303.07670 1.59792e-17
6306.12690 1.59991e-17
6309.16700 1.55562e-17
6312.20710 1.56691e-17
6315.24720 1.58794e-17
6318.28730 1.57939e-17
6321.32740 1.57540e-17
6324.36750 1.56617e-17
6327.40760 1.58151e-17
6330.45780 1.56708e-17
6333.49790 1.54150e-17
6336.53800 1.53720e-17
6339.57810 1.53684e-17
6342.61820 1.53622e-17
6345.65830 1.48909e-17
6348.69840 1.46915e-17
6351.73850 1.50646e-17
6354.78870 1.54984e-17
6357.82880 1.55277e-17
6360.86890 1.59355e-17
6363.90900 1.62058e-17
6366.94910 1.64090e-17
6369.98920 1.56935e-17
6373.02930 1.54453e-17
6376.06940 1.53739e-17
6379.11960 1.55300e-17
6382.15970 1.55214e-17
6385.19980 1.55260e-17
6388.23990 1.55442e-17
6391.28000 1.54635e-17
6394.32010 1.55148e-17
6397.36020 1.51401e-17
6400.41040 1.52797e-17
6403.45050 1.54379e-17
6406.49060 1.53817e-17
6409.53070 1.53223e-17
6412.57080 1.54528e-17
6415.61090 1.53058e-17
6418.65100 1.52695e-17
6421.69110 1.50449e-17
6424.74130 1.52416e-17
6427.78140 1.53956e-17
6430.82150 1.52127e-17
6433.86160 1.52108e-17
6436.90170 1.51811e-17
6439.94180 1.52999e-17
6442.98190 1.51428e-17
6446.03210 1.53064e-17
6449.07220 1.51889e-17
6452.11230 1.52905e-17
6455.15240 1.52378e-17
6458.19250 1.51676e-17
6461.23260 1.50916e-17
6464.27270 1.51810e-17
6467.31280 1.52279e-17
6470.35290 1.49431e-17
6473.40310 1.51331e-17
6476.44320 1.53847e-17
6479.48330 1.51938e-17
6482.52340 1.51236e-17
6485.56350 1.49735e-17
6488.60360 1.49094e-17
6491.64370 1.48796e-17
6494.69390 1.47381e-17
6497.73400 1.48115e-17
6500.77410 1.50113e-17
6503.81420 1.49031e-17
6506.85430 1.48102e-17
6509.89440 1.48346e-17
6512.93450 1.49904e-17
6515.97460 1.45016e-17
6519.02480 1.44992e-17
6522.06490 1.42892e-17
6525.10500 1.45090e-17
6528.14510 1.44071e-17
6531.18520 1.44030e-17
6534.22530 1.45812e-17
6537.26540 1.46196e-17
6540.31560 1.46268e-17
6543.35570 1.46476e-17
6546.39580 1.45393e-17
6549.43590 1.46172e-17
6552.47600 1.47353e-17
6555.51610 1.46945e-17
6558.55620 1.46556e-17
6561.59630 1.46332e-17
6564.64650 1.47274e-17
6567.68660 1.47416e-17
6570.72670 1.47825e-17
6573.76680 1.46810e-17
6576.80690 1.47359e-17
6579.84700 1.49707e-17
6582.88710 1.48648e-17
6585.92720 1.47024e-17
6588.97740 1.46182e-17
6592.01750 1.45541e-17
6595.05760 1.46506e-17
6598.09770 1.46467e-17
6601.13780 1.46428e-17
6604.17790 1.46389e-17
6607.21800 1.46349e-17
6610.25810 1.46310e-17
6613.30830 1.46271e-17
6616.34840 1.46232e-17
6619.38850 1.46193e-17
6622.42860 1.46154e-17
6625.46870 1.46115e-17
6628.50880 1.46076e-17
6631.54890 1.46037e-17
6634.59910 1.45998e-17
6637.63920 1.45585e-17
6640.67930 1.45172e-17
6643.71940 1.44760e-17
6646.75950 1.44347e-17
6649.79960 1.43934e-17
6652.83970 1.43522e-17
6655.87980 1.43109e-17
6658.93000 1.42697e-17
6661.97010 1.42285e-17
6665.01020 1.41873e-17
6668.05030 1.41460e-17
6671.09040 1.39313e-17
6674.13050 1.42671e-17
6677.17060 1.39250e-17
6680.21070 1.35561e-17
6683.26090 1.35441e-17
6686.30100 1.37500e-17
6689.34110 1.36127e-17
6692.38120 1.37636e-17
6695.42130 1.35873e-17
6698.46140 1.35255e-17
6701.50150 1.35875e-17
6704.55170 1.35099e-17
6707.59180 1.34127e-17
6710.63190 1.34623e-17
6713.67200 1.35373e-17
6716.71210 1.32437e-17
6719.75220 1.34256e-17
6722.79230 1.34815e-17
6725.83240 1.33380e-17
6728.88260 1.32364e-17
6731.92270 1.33323e-17
6734.96280 1.35015e-17
6738.00290 1.33610e-17
6741.04300 1.34736e-17
6744.08310 1.37252e-17
6747.12320 1.39585e-17
6750.16330 1.40742e-17
6753.21350 1.34995e-17
6756.25360 1.34094e-17
6759.29370 1.34488e-17
6762.33380 1.34231e-17
6765.37390 1.34782e-17
6768.41400 1.38860e-17
6771.45410 1.42937e-17
6774.49420 1.47014e-17
6777.54440 1.51089e-17
6780.58450 1.49356e-17
6783.62460 1.47624e-17
6786.66470 1.45892e-17
6789.70480 1.44161e-17
6792.74490 1.42431e-17
6795.78500 1.40700e-17
6798.83520 1.38970e-17
6801.87530 1.37240e-17
6804.91540 1.35511e-17
6807.95550 1.33782e-17
6810.99560 1.32054e-17
6814.03570 1.30326e-17
6817.07580 1.28598e-17
6820.11590 1.29156e-17
6823.16610 1.30008e-17
6826.20620 1.29289e-17
6829.24630 1.29053e-17
6832.28640 1.29219e-17
6835.32650 1.32136e-17
6838.36660 1.27719e-17
6841.40670 1.29065e-17
6844.45690 1.30161e-17
6847.49700 1.29931e-17
6850.53710 1.29701e-17
6853.57720 1.29470e-17
6856.61730 1.29240e-17
6859.65740 1.29010e-17
6862.69750 1.28780e-17
6865.73760 1.28550e-17
6868.77770 1.28321e-17
6871.82790 1.28091e-17
6874.86800 1.27861e-17
6877.90810 1.27631e-17
6880.94820 1.27401e-17
6883.98830 1.27172e-17
6887.02840 1.26942e-17
6890.06850 1.26713e-17
6893.11870 1.26483e-17
6896.15880 1.26254e-17
6899.19890 1.26024e-17
6902.23900 1.25795e-17
6905.27910 1.25566e-17
6908.31920 1.25336e-17
6911.35930 1.25107e-17
6914.39940 1.24878e-17
6917.44960 1.24649e-17
6920.48970 1.24420e-17
6923.52980 1.24191e-17
6926.56990 1.23962e-17
6929.61000 1.23733e-17
6932.65010 1.23504e-17
6935.69020 1.23275e-17
6938.74040 1.23347e-17
6941.78050 1.23417e-17
6944.82060 1.22567e-17
6947.86070 1.23851e-17
6950.90080 1.22387e-17
6953.94090 1.22592e-17
6956.98100 1.24151e-17
6960.02110 1.19203e-17
6963.06120 1.21014e-17
6966.11140 1.21780e-17
6969.15150 1.19706e-17
6972.19160 1.22844e-17
6975.23170 1.22438e-17
6978.27180 1.21461e-17
6981.31190 1.22436e-17
6984.35200 1.19371e-17
6987.40220 1.21594e-17
6990.44230 1.23651e-17
6993.48240 1.22091e-17
6996.52250 1.20287e-17
6999.56260 1.21322e-17
7002.60270 1.21878e-17
7005.64280 1.22248e-17
7008.68290 1.22479e-17
7011.73310 1.20781e-17
7014.77320 1.17760e-17
7017.81330 1.18698e-17
7020.85340 1.19346e-17
7023.89350 1.21595e-17
7026.93360 1.19221e-17
7029.97370 1.18971e-17
7033.02390 1.20063e-17
7036.06400 1.16606e-17
7039.10410 1.16311e-17
7042.14420 1.15980e-17
7045.18430 1.17918e-17
7048.22440 1.16374e-17
7051.26450 1.14328e-17
7054.30460 1.13435e-17
7057.35480 1.13518e-17
7060.39490 1.13228e-17
7063.43500 1.15133e-17
7066.47510 1.14885e-17
7069.51520 1.14321e-17
7072.55530 1.14831e-17
7075.59540 1.15266e-17
7078.63550 1.14637e-17
7081.68570 1.16505e-17
7084.72580 1.12870e-17
7087.76590 1.13955e-17
7090.80600 1.15964e-17
7093.84610 1.15245e-17
7096.88620 1.14725e-17
7099.92630 1.16858e-17
7102.97650 1.13984e-17
7106.01660 1.22397e-17
7109.05670 1.17409e-17
7112.09680 1.12501e-17
7115.13690 1.15037e-17
7118.17700 1.15664e-17
7121.21710 1.11632e-17
7124.25720 1.10391e-17
7127.30740 1.11034e-17
7130.34750 1.10893e-17
7133.38760 1.10486e-17
7136.42770 1.13300e-17
7139.46780 1.15197e-17
7142.50790 1.11243e-17
7145.54800 1.10530e-17
7148.58810 1.10335e-17
7151.63830 1.09190e-17
7154.67840 1.09182e-17
7157.71850 1.08456e-17
7160.75860 1.10129e-17
7163.79870 1.07481e-17
7166.83880 1.07483e-17
7169.87890 1.10486e-17
7172.91900 1.09463e-17
7175.96920 1.09977e-17
7179.00930 1.09446e-17
7182.04940 1.07406e-17
7185.08950 1.06660e-17
7188.12960 1.08466e-17
7191.16970 1.08751e-17
7194.20980 1.09505e-17
7197.26000 1.06452e-17
7200.30010 1.07679e-17
7203.34020 1.09473e-17
7206.38030 1.13054e-17
7209.42040 1.13316e-17
7212.46050 1.08113e-17
7215.50060 1.03940e-17
7218.54070 1.03484e-17
7221.59090 1.02028e-17
7224.63100 1.01879e-17
7227.67110 1.03394e-17
7230.71120 1.00403e-17
7233.75130 9.94691e-18
7236.79140 1.00749e-17
7239.83150 1.01643e-17
7242.88170 1.01345e-17
7245.92180 1.01562e-17
7248.96190 1.01264e-17
7252.00200 9.97282e-18
7255.04210 1.02185e-17
7258.08220 1.00898e-17
7261.12230 1.00360e-17
7264.16240 9.90568e-18
7267.20250 9.89567e-18
7270.25270 1.01120e-17
7273.29280 9.89408e-18
7276.33290 9.83489e-18
7279.37300 9.87900e-18
7282.41310 9.75304e-18
7285.45320 9.43401e-18
7288.49330 9.56941e-18
7291.54350 9.87094e-18
7294.58360 9.96534e-18
7297.62370 9.61365e-18
7300.66380 9.77098e-18
7303.70390 9.94020e-18
7306.74400 9.62186e-18
7309.78410 9.75634e-18
7312.82420 1.00337e-17
7315.87440 9.86167e-18
7318.91450 9.85456e-18
7321.95460 1.00131e-17
7324.99470 9.54247e-18
7328.03480 9.54633e-18
7331.07490 9.50554e-18
7334.11500 9.49505e-18
7337.16520 9.44450e-18
7340.20530 9.32918e-18
7343.24540 9.47735e-18
7346.28550 9.35422e-18
7349.32560 9.18564e-18
7352.36570 9.41467e-18
7355.40580 9.37979e-18
7358.44590 9.45005e-18
7361.49610 9.49403e-18
7364.53620 9.21868e-18
7367.57630 9.02934e-18
7370.61640 9.24339e-18
7373.65650 9.40256e-18
7376.69660 9.46912e-18
7379.73670 9.27519e-18
7382.77680 9.12517e-18
7385.82700 9.08845e-18
7388.86710 9.23813e-18
7391.90720 9.62960e-18
7394.94730 9.58252e-18
7397.98740 9.61357e-18
7401.02750 9.74079e-18
7404.06760 9.58399e-18
7407.10770 9.59058e-18
7410.15790 9.46769e-18
7413.19800 9.13242e-18
7416.23810 9.17226e-18
7419.27820 9.36821e-18
7422.31830 9.41205e-18
7425.35840 9.38964e-18
7428.39850 9.19778e-18
7431.44870 9.27480e-18
7434.48880 9.30008e-18
7437.52890 9.24912e-18
7440.56900 9.28419e-18
7443.60910 9.20293e-18
7446.64920 9.39010e-18
7449.68930 9.45598e-18
7452.72940 9.32858e-18
7455.77960 9.23319e-18
7458.81970 9.39959e-18
7461.85980 9.23264e-18
7464.89990 9.16897e-18
7467.94000 9.09144e-18
7470.98010 9.22846e-18
7474.02020 9.35195e-18
7477.06030 9.20557e-18
7480.11050 9.06448e-18
7483.15060 9.19759e-18
7486.19070 9.40413e-18
7489.23080 9.26287e-18
7492.27090 9.14156e-18
7495.31100 9.28916e-18
7498.35110 9.24875e-18
7501.39120 9.33556e-18
7504.44140 9.13886e-18
7507.48150 9.07773e-18
7510.52160 9.39858e-18
7513.56170 9.32307e-18
7516.60180 9.20019e-18
7519.64190 9.36246e-18
7522.68200 9.37907e-18
7525.73220 8.99981e-18
7528.77230 9.36294e-18
7531.81240 9.53579e-18
7534.85250 9.33901e-18
7537.89260 9.57281e-18
7540.93270 9.28789e-18
7543.97280 9.36833e-18
7547.01290 9.54131e-18
7550.06310 9.54218e-18
7553.10320 9.54304e-18
7556.14330 9.54390e-18
7559.18340 9.54477e-18
7562.22350 9.54563e-18
7565.26360 9.54649e-18
7568.30370 9.54735e-18
7571.34380 9.54821e-18
7574.39400 9.54907e-18
7577.43410 9.54992e-18
7580.47420 9.55078e-18
7583.51430 9.55163e-18
7586.55440 9.55249e-18
7589.59450 9.55334e-18
7592.63460 9.55420e-18
7595.68480 9.55505e-18
7598.72490 9.55590e-18
7601.76500 9.55675e-18
7604.80510 9.55760e-18
7607.84520 9.55845e-18
7610.88530 9.55930e-18
7613.92540 9.56015e-18
7616.96550 9.56100e-18
7620.01570 9.56184e-18
7623.05580 9.56269e-18
7626.09590 9.56353e-18
7629.13600 9.56438e-18
7632.17610 9.56522e-18
7635.21620 9.56606e-18
7638.25630 9.56690e-18
7641.30650 9.56775e-18
7644.34660 9.56859e-18
7647.38670 9.56943e-18
7650.42680 9.57026e-18
7653.46690 9.57110e-18
7656.50700 9.57194e-18
7659.54710 9.57278e-18
7662.58720 9.57361e-18
7665.62730 9.57445e-18
7668.67750 9.57528e-18
7671.71760 9.57612e-18
7674.75770 9.57695e-18
7677.79780 9.57778e-18
7680.83790 9.57861e-18
7683.87800 9.26877e-18
7686.91810 9.13367e-18
7689.96830 9.21824e-18
7693.00840 9.43243e-18
7696.04850 9.17629e-18
7699.08860 9.11456e-18
7702.12870 9.26379e-18
7705.16880 9.15782e-18
7708.20890 9.12884e-18
7711.24900 9.22832e-18
7714.29920 9.37930e-18
7717.33930 9.48206e-18
7720.37940 8.93207e-18
7723.41950 9.30643e-18
7726.45960 9.24622e-18
7729.49970 9.01383e-18
7732.53980 9.09743e-18
7735.59000 9.00903e-18
7738.63010 8.90704e-18
7741.67020 8.91753e-18
7744.71030 8.92172e-18
7747.75040 8.93417e-18
7750.79050 9.14136e-18
7753.83060 8.99685e-18
7756.87070 9.05953e-18
7759.92090 8.85140e-18
7762.96100 8.99645e-18
7766.00110 8.95923e-18
7769.04120 8.98551e-18
7772.08130 8.73318e-18
7775.12140 8.71994e-18
7778.16150 8.83194e-18
7781.20160 8.80389e-18
7784.25180 8.63540e-18
7787.29190 8.99691e-18
7790.33200 9.05934e-18
7793.37210 9.00696e-18
7796.41220 8.73905e-18
7799.45230 8.95902e-18
7802.49240 9.09190e-18
7805.53250 8.91514e-18
7808.58270 8.79339e-18
7811.62280 8.93578e-18
7814.66290 8.99293e-18
7817.70300 9.11294e-18
7820.74310 8.98842e-18
7823.78320 8.94802e-18
7826.82330 8.98904e-18
7829.87350 8.98807e-18
7832.91360 9.01667e-18
7835.95370 9.35878e-18
7838.99380 8.78252e-18
7842.03390 8.69700e-18
7845.07400 8.76951e-18
7848.11410 8.75000e-18
7851.15420 8.93187e-18
7854.20440 8.83172e-18
7857.24450 8.90072e-18
7860.28460 9.08265e-18
7863.32470 8.85431e-18
7866.36480 8.93996e-18
7869.40490 9.05213e-18
7872.44500 8.98119e-18
7875.48510 8.78505e-18
7878.53530 8.87459e-18
7881.57540 8.83331e-18
7884.61550 8.80195e-18
7887.65560 8.87195e-18
7890.69570 9.01287e-18
7893.73580 9.14296e-18
7896.77590 8.98787e-18
7899.81600 9.04495e-18
7902.86620 9.06025e-18
7905.90630 8.98719e-18
7908.94640 8.82034e-18
7911.98650 9.16542e-18
7915.02660 9.23567e-18
7918.06670 9.23510e-18
7921.10680 9.31111e-18
7924.15700 9.25016e-18
7927.19710 9.23929e-18
7930.23720 9.15706e-18
7933.27730 9.26769e-18
7936.31740 9.39261e-18
7939.35750 9.18537e-18
7942.39760 9.16549e-18
7945.43770 9.15537e-18
7948.48790 9.21010e-18
7951.52800 9.17443e-18
7954.56810 9.06530e-18
7957.60820 9.15660e-18
7960.64830 9.32324e-18
7963.68840 9.49550e-18
7966.72850 9.50011e-18
7969.76860 9.39315e-18
7972.81880 9.10307e-18
7975.85890 9.27706e-18
7978.89900 9.29189e-18
7981.93910 9.49633e-18
7984.97920 9.20551e-18
7988.01930 9.36565e-18
7991.05940 9.40391e-18
7994.10960 9.55344e-18
7997.14970 9.61718e-18
8000.18980 9.60818e-18
8003.22990 9.63944e-18
8006.27000 9.34233e-18
8009.31010 9.40315e-18
8012.35020 9.46492e-18
8015.39030 9.52628e-18
8018.44050 9.35782e-18
8021.48060 9.44356e-18
8024.52070 9.52375e-18
8027.56080 9.57833e-18
8030.60090 9.88224e-18
8033.64100 9.75250e-18
8036.68110 9.75247e-18
8039.72120 9.79085e-18
8042.77140 9.98516e-18
8045.81150 9.87266e-18
8048.85160 9.81385e-18
8051.89170 9.80363e-18
8054.93180 9.68412e-18
8057.97190 9.50701e-18
8061.01200 9.88303e-18
8064.05210 9.89593e-18
8067.10230 9.90712e-18
8070.14240 9.94880e-18
8073.18250 9.98609e-18
8076.22260 9.73121e-18
8079.26270 9.94881e-18
8082.30280 9.98818e-18
8085.34290 9.85746e-18
8088.39310 9.74736e-18
8091.43320 1.01652e-17
8094.47330 9.95411e-18
8097.51340 9.97839e-18
8100.55350 9.98874e-18
8103.59360 9.90587e-18
8106.63370 9.80431e-18
8109.67380 1.00811e-17
8112.72400 9.70408e-18
8115.76410 9.76418e-18
8118.80420 9.80147e-18
8121.84430 9.91360e-18
8124.88440 9.90303e-18
8127.92450 9.82510e-18
8130.96460 9.86487e-18
8134.00470 9.92507e-18
8137.05490 9.93859e-18
8140.09500 9.95241e-18
8143.13510 9.88281e-18
8146.17520 9.89710e-18
8149.21530 9.99640e-18
8152.25540 1.01542e-17
8155.29550 9.98634e-18
8158.34570 9.97232e-18
8161.38580 9.97506e-18
8164.42590 1.04460e-17
8167.46600 1.03619e-17
8170.50610 1.02254e-17
8173.54620 1.01794e-17
8176.58630 9.87911e-18
8179.62640 1.01418e-17
8182.67660 1.03900e-17
8185.71670 9.78656e-18
8188.75680 9.70139e-18
8191.79690 1.02017e-17
8194.83700 1.02311e-17
8197.87710 1.03848e-17
8200.91720 1.05067e-17
8203.95730 1.05311e-17
8207.00750 1.00800e-17
8210.04760 1.03370e-17
8213.08770 1.02097e-17
8216.12780 1.02061e-17
8219.16790 1.02351e-17
8222.20800 1.02913e-17
8225.24810 1.01431e-17
8228.28820 1.06306e-17
8231.33840 1.09372e-17
8234.37850 1.06836e-17
8237.41860 1.04285e-17
8240.45870 1.03677e-17
8243.49880 1.05620e-17
8246.53890 1.06056e-17
8249.57900 1.02235e-17
8252.62920 1.01045e-17
8255.66930 1.02870e-17
8258.70940 1.01288e-17
8261.74950 1.00002e-17
8264.78960 1.04143e-17
8267.82970 1.03601e-17
8270.86980 1.02772e-17
8273.90990 1.01858e-17
8276.96010 1.04797e-17
8280.00020 1.03658e-17
8283.04030 1.01399e-17
8286.08040 9.93462e-18
8289.12050 1.00568e-17
8292.16060 1.04620e-17
8295.20070 1.03147e-17
8298.24080 1.00102e-17
8301.29100 9.97652e-18
8304.33110 1.00097e-17
8307.37120 1.03904e-17
8310.41130 1.00006e-17
8313.45140 1.02437e-17
8316.49150 1.00178e-17
8319.53160 1.00273e-17
8322.58180 1.01775e-17
8325.62190 1.00892e-17
8328.66200 9.93143e-18
8331.70210 1.02132e-17
8334.74220 1.04131e-17
8337.78230 9.76343e-18
8340.82240 9.79744e-18
8343.86250 9.90546e-18
8346.91270 9.83418e-18
8349.95280 1.00445e-17
8352.99290 1.02852e-17
8356.03300 1.01888e-17
8359.07310 9.92396e-18
8362.11320 9.86332e-18
8365.15330 9.55246e-18
8368.19340 9.55900e-18
8371.24360 9.76062e-18
8374.28370 9.89698e-18
8377.32380 9.99648e-18
8380.36390 1.00795e-17
8383.40400 9.85461e-18
8386.44410 9.80294e-18
8389.48420 9.80459e-18
8392.52430 9.64161e-18
8395.57450 9.54922e-18
8398.61460 9.78808e-18
8401.65470 9.43063e-18
8404.69480 9.79358e-18
8407.73490 9.55375e-18
8410.77500 9.50324e-18
8413.81510 9.60495e-18
8416.86530 9.45926e-18
8419.90540 9.54290e-18
8422.94550 9.66948e-18
8425.98560 9.48733e-18
8429.02570 9.67969e-18
8432.06580 9.67084e-18
8435.10590 9.84130e-18
8438.14600 9.58061e-18
8441.19620 9.24821e-18
8444.23630 9.51116e-18
8447.27640 9.17480e-18
8450.31650 9.36320e-18
8453.35660 9.65825e-18
8456.39670 9.51862e-18
8459.43680 9.20352e-18
8462.47690 9.48657e-18
8465.52710 9.07569e-18
8468.56720 9.34392e-18
8471.60730 9.37435e-18
8474.64740 9.40460e-18
8477.68750 9.28289e-18
8480.72760 9.35462e-18
8483.76770 9.12787e-18
8486.81790 9.50246e-18
8489.85800 9.07846e-18
8492.89810 8.91206e-18
8495.93820 9.05510e-18
8498.97830 9.32562e-18
8502.01840 9.06522e-18
8505.05850 9.03883e-18
8508.09860 9.28128e-18
8511.14880 9.19588e-18
8514.18890 8.80867e-18
8517.22900 9.07742e-18
8520.26910 9.15235e-18
8523.30920 8.90428e-18
8526.34930 9.03339e-18
8529.38940 9.07755e-18
8532.43960 8.96707e-18
8535.47970 8.98809e-18
8538.51980 9.27938e-18
8541.55990 8.99339e-18
8544.60000 8.98814e-18
8547.64010 8.97003e-18
8550.68020 9.28161e-18
8553.72030 9.01247e-18
8556.76040 8.98055e-18
8559.81060 8.69414e-18
8562.85070 8.82251e-18
8565.89080 8.83854e-18
8568.93090 8.64743e-18
8571.97100 8.74009e-18
8575.01110 8.95425e-18
8578.05120 8.67916e-18
8581.10140 8.72396e-18
8584.14150 8.71552e-18
8587.18160 8.79805e-18
8590.22170 8.80283e-18
8593.26180 8.90370e-18
8596.30190 9.06451e-18
8599.34200 8.74031e-18
8602.38210 8.86239e-18
8605.43230 9.10107e-18
8608.47240 9.08398e-18
8611.51250 9.13820e-18
8614.55260 9.26925e-18
8617.59270 8.81818e-18
8620.63280 9.02783e-18
8623.67290 8.68074e-18
8626.71300 8.45835e-18
8629.76320 8.56186e-18
8632.80330 8.77005e-18
8635.84340 8.89810e-18
8638.88350 9.00785e-18
8641.92360 8.67550e-18
8644.96370 8.71565e-18
8648.00380 9.24111e-18
8651.04390 8.84322e-18
8654.09410 8.68099e-18
8657.13420 8.96092e-18
8660.17430 9.08855e-18
8663.21440 9.17241e-18
8666.25450 9.53379e-18
8669.29460 9.24225e-18
8672.33470 9.04665e-18
8675.38490 8.99606e-18
8678.42500 8.78547e-18
8681.46510 9.03431e-18
8684.50520 8.93678e-18
8687.54530 9.26491e-18
8690.58540 8.93697e-18
8693.62550 8.99054e-18
8696.66560 8.78378e-18
8699.71580 8.84549e-18
8702.75590 8.55569e-18
8705.79600 8.82097e-18
8708.83610 9.17307e-18
8711.87620 8.79574e-18
8714.91630 8.73351e-18
8717.95640 8.68039e-18
8721.00660 8.91539e-18
8724.04670 8.75234e-18
8727.08680 8.78784e-18
8730.12690 8.82142e-18
8733.16700 8.67646e-18
8736.20710 8.75955e-18
8739.24720 8.62198e-18
8742.28730 8.68804e-18
8745.33750 8.86913e-18
8748.37760 8.87153e-18
8751.41770 8.75205e-18
8754.45780 8.74830e-18
8757.49790 8.85359e-18
8760.53800 8.62551e-18
8763.57810 8.31824e-18
8766.62830 8.86017e-18
8769.66840 9.18044e-18
8772.70850 8.58342e-18
8775.74860 8.77661e-18
8778.78870 8.66462e-18
8781.82880 8.59791e-18
8784.86890 8.81843e-18
8787.90900 8.97187e-18
8790.95920 8.78904e-18
8793.99930 8.63860e-18
8797.03940 8.49544e-18
8800.07950 8.64482e-18
8803.11960 8.81781e-18
8806.15970 8.77550e-18
8809.19980 8.73477e-18
8812.23990 8.61924e-18
8815.28000 8.46873e-18
8818.33020 8.56581e-18
8821.37030 8.57250e-18
8824.41040 8.36106e-18
8827.45050 8.81033e-18
8830.49060 8.14183e-18
8833.53070 8.37780e-18
8836.57080 8.20763e-18
8839.62100 8.78350e-18
8842.66110 8.87154e-18
8845.70120 8.19803e-18
8848.74130 8.08961e-18
8851.78140 8.01344e-18
8854.82150 8.16392e-18
8857.86160 8.14852e-18
8860.90170 8.08499e-18
8863.95190 8.57846e-18
8866.99200 8.60584e-18
8870.03210 8.43050e-18
8873.07220 8.43806e-18
8876.11230 8.27824e-18
8879.15240 8.31031e-18
8882.19250 8.66264e-18
8885.24270 8.55427e-18
8888.28280 8.36929e-18
8891.32290 8.49953e-18
8894.36300 8.53394e-18
8897.40310 8.19658e-18
8900.44320 8.04124e-18
8903.48330 8.13181e-18
8906.52340 8.69318e-18
8909.57360 8.48772e-18
8912.61370 8.60141e-18
8915.65380 8.51656e-18
8918.69390 8.46566e-18
8921.73400 8.64262e-18
8924.77410 8.58055e-18
8927.81420 8.69543e-18
8930.86440 9.10403e-18
8933.90450 8.70854e-18
8936.94460 8.51343e-18
8939.98470 7.95982e-18
8943.02480 8.32791e-18
8946.06490 8.50693e-18
8949.10500 8.53891e-18
8952.14510 8.31342e-18
8955.19530 8.34144e-18
8958.23540 7.90734e-18
8961.27550 8.08248e-18
8964.31560 8.15999e-18
8967.35570 8.36486e-18
8970.39580 8.34129e-18
8973.43590 7.84802e-18
8976.47600 8.25494e-18
8979.52620 8.14507e-18
8982.56630 8.14178e-18
8985.60640 7.50359e-18
8988.64650 7.31295e-18
8991.68660 7.79395e-18
8994.72670 8.70867e-18
8997.76680 8.30051e-18
9000.80690 8.23024e-18
9003.85710 8.23455e-18
9006.89720 7.84633e-18
9009.93730 7.91933e-18
9012.97740 7.73447e-18
9016.01750 7.85809e-18
9019.05760 7.86922e-18
9022.09770 7.78382e-18
9025.14790 8.11816e-18
9028.18800 7.64916e-18
9031.22810 7.56263e-18
9034.26820 7.78078e-18
9037.30830 7.74183e-18
9040.34840 7.72817e-18
9043.38850 7.51129e-18
9046.42860 7.50737e-18
9049.47880 7.61995e-18
9052.51890 8.04565e-18
9055.55900 7.85048e-18
9058.59910 7.69292e-18
9061.63920 7.60028e-18
9064.67930 7.56255e-18
9067.71940 7.74315e-18
9070.75950 7.57825e-18
9073.80970 7.53761e-18
9076.84980 7.52118e-18
9079.88990 7.69633e-18
9082.93000 7.47610e-18
9085.97010 7.51561e-18
9089.01020 8.08906e-18
9092.05030 7.77731e-18
9095.09040 7.04086e-18
9098.14060 7.37169e-18
9101.18070 7.63941e-18
9104.22080 7.74127e-18
9107.26090 7.66917e-18
9110.30100 7.27783e-18
9113.34110 7.33237e-18
9116.38120 8.01619e-18
9119.43140 7.33646e-18
9122.47150 7.15045e-18
9125.51160 7.28051e-18
9128.55170 7.49455e-18
9131.59180 7.48380e-18
9134.63190 7.35126e-18
9137.67200 7.55860e-18
9140.71210 7.66163e-18
9143.76230 7.71993e-18
9146.80240 7.07314e-18
9149.84250 7.08003e-18
9152.88260 7.79549e-18
9155.92270 9.71896e-18
9158.96280 1.14795e-17
9162.00290 1.04233e-17
9165.04300 8.59338e-18
9168.09320 7.08295e-18
9171.13330 7.01188e-18
9174.17340 7.33061e-18
9177.21350 7.27593e-18
9180.25360 6.88193e-18
9183.29370 6.96136e-18
9186.33380 7.07065e-18
9189.38400 7.01694e-18
9192.42410 7.66878e-18
9195.46420 7.35289e-18
9198.50430 7.29318e-18
9201.54440 7.13776e-18
9204.58450 7.13048e-18
9207.62460 7.06744e-18
9210.66470 6.92788e-18
9213.71490 6.91214e-18
9216.75500 7.31248e-18
9219.79510 7.30608e-18
9222.83520 7.04155e-18
9225.87530 7.31440e-18
9228.91540 7.50485e-18
9231.95550 7.42749e-18
9234.99560 7.28428e-18
9236.00272 7.28428e-18
9237.99956 7.28177e-18
9239.99641 7.01467e-18
9242.00345 6.59762e-18
9244.00030 6.49903e-18
9245.99714 6.74064e-18
9248.00418 6.67585e-18
9250.00103 6.43235e-18
9251.99788 6.17824e-18
9254.00491 5.90659e-18
9256.00176 5.65102e-18
9257.99861 5.58942e-18
9259.99546 5.77600e-18
9262.00249 5.68778e-18
9263.99934 5.34008e-18
9265.99619 5.15429e-18
9268.00322 5.19435e-18
9270.00007 5.31708e-18
9271.99692 5.39901e-18
9274.00396 5.52325e-18
9276.00080 5.49763e-18
9277.99765 5.21244e-18
9279.99450 5.19008e-18
9282.00154 5.48441e-18
9283.99838 5.83711e-18
9285.99523 6.03922e-18
9288.00227 6.17756e-18
9289.99912 6.41597e-18
9291.99596 6.95724e-18
9294.00300 6.97940e-18
9295.99985 6.12229e-18
9297.99670 5.68025e-18
9300.00373 6.58634e-18
9302.00058 8.26623e-18
9303.99743 8.89433e-18
9306.00446 9.64758e-18
9308.00131 8.76082e-18
9309.99816 5.28881e-18
9312.00520 3.01180e-18
9314.00204 3.51526e-18
9315.99889 5.28226e-18
9317.99574 5.79540e-18
9320.00278 5.71015e-18
9321.99962 6.13817e-18
9323.99647 6.82913e-18
9326.00351 7.54126e-18
9328.00036 8.47119e-18
9329.99720 9.25310e-18
9332.00424 9.08906e-18
9334.00109 8.02851e-18
9335.99794 7.49276e-18
9337.99478 6.91391e-18
9340.00182 6.65369e-18
9341.99867 6.95632e-18
9343.99552 7.23949e-18
9346.00255 6.80767e-18
9347.99940 5.83808e-18
9349.99625 5.54260e-18
9352.00328 5.64372e-18
9354.00013 5.76237e-18
9355.99698 5.94648e-18
9358.00402 6.23233e-18
9360.00086 6.68209e-18
9361.99771 7.26987e-18
9364.00475 7.58024e-18
9366.00160 7.73214e-18
9367.99844 7.80616e-18
9369.99529 7.59119e-18
9372.00233 7.58445e-18
9373.99918 8.16277e-18
9375.99602 8.98560e-18
9378.00306 9.01139e-18
9379.99991 8.51742e-18
9381.99676 7.86529e-18
9384.00379 6.40843e-18
9386.00064 5.64094e-18
9387.99749 6.18475e-18
9390.00452 7.17783e-18
9392.00137 7.17398e-18
9393.99822 6.52490e-18
9395.99507 6.19979e-18
9398.00210 5.77388e-18
9399.99895 5.61417e-18
9401.99580 5.92376e-18
9404.00284 6.26509e-18
9405.99968 6.06040e-18
9407.99653 5.45383e-18
9410.00357 5.15258e-18
9412.00042 4.92071e-18
9413.99726 4.78217e-18
9416.00430 4.69286e-18
9418.00115 4.74630e-18
9419.99800 5.08270e-18
9421.99484 5.66766e-18
9424.00188 5.90916e-18
9425.99873 5.87890e-18
9427.99558 5.99015e-18
9430.00261 6.05728e-18
9431.99946 6.32725e-18
9433.99631 6.90612e-18
9436.00334 7.73794e-18
9438.00019 8.94235e-18
9439.99704 1.15881e-17
9442.00408 1.19568e-17
9444.00092 1.03888e-17
9445.99777 8.75406e-18
9448.00481 7.29212e-18
9450.00166 5.95351e-18
9451.99850 5.72353e-18
9453.99535 6.87716e-18
9456.00239 6.82765e-18
9457.99924 6.10674e-18
9459.99608 5.44335e-18
9462.00312 4.82587e-18
9463.99997 4.28001e-18
9465.99682 3.98314e-18
9468.00385 3.75544e-18
9470.00070 4.18868e-18
9471.99755 5.54599e-18
9474.00458 6.46807e-18
9476.00143 7.14036e-18
9477.99828 7.44329e-18
9479.99513 7.00377e-18
9482.00216 5.84751e-18
9483.99901 5.49142e-18
9485.99586 5.69590e-18
9488.00290 5.62962e-18
9489.99974 5.32571e-18
9491.99659 5.06703e-18
9494.00363 4.95479e-18
9496.00048 4.93594e-18
9497.99732 5.32989e-18
9500.00436 6.25602e-18
9502.00121 6.95454e-18
9503.99806 7.86532e-18
9505.99490 8.33542e-18
9508.00194 8.04239e-18
9509.99879 7.26398e-18
9511.99564 6.50730e-18
9514.00267 5.21796e-18
9515.99952 4.71545e-18
9517.99637 4.73339e-18
9520.00340 4.91336e-18
9522.00025 5.25422e-18
9523.99710 5.72853e-18
9526.00414 6.20161e-18
9528.00098 6.96445e-18
9529.99783 6.89213e-18
9532.00487 5.82640e-18
9534.00172 5.27038e-18
9535.99856 5.49868e-18
9537.99541 5.76800e-18
9540.00245 5.17173e-18
9541.99930 3.75747e-18
9543.99614 4.16184e-18
9546.00318 6.42925e-18
9548.00003 7.76400e-18
9549.99688 8.58306e-18
9552.00391 8.87383e-18
9554.00076 8.40038e-18
9555.99761 7.24843e-18
9557.99446 6.21947e-18
9560.00149 4.19914e-18
9561.99834 3.90832e-18
9563.99519 5.43976e-18
9566.00222 7.00920e-18
9567.99907 8.01921e-18
9569.99592 8.77847e-18
9572.00296 8.49267e-18
9573.99980 6.81987e-18
9575.99665 5.87774e-18
9578.00369 5.04068e-18
9580.00054 4.34890e-18
9581.99738 3.69888e-18
9584.00442 3.25772e-18
9586.00127 3.53442e-18
9587.99812 4.69845e-18
9590.00515 5.22404e-18
9592.00200 5.51716e-18
9593.99885 5.75416e-18
9595.99570 5.91914e-18
9598.00273 6.03758e-18
9599.99958 6.18251e-18
9601.99643 6.32429e-18
9604.00346 6.45673e-18
9606.00031 6.75092e-18
9607.99716 6.69255e-18
9610.00420 6.27749e-18
9612.00104 5.64282e-18
9613.99789 4.68106e-18
9615.99474 3.28016e-18
9618.00178 3.47870e-18
9619.99862 5.79570e-18
9621.99547 6.41233e-18
9624.00251 5.55227e-18
9625.99936 4.48373e-18
9627.99620 3.64695e-18
9630.00324 2.82286e-18
9632.00009 3.10781e-18
9633.99694 4.83081e-18
9636.00397 5.62113e-18
9638.00082 6.16648e-18
9639.99767 6.29550e-18
9642.00470 5.69368e-18
9644.00155 4.74771e-18
9645.99840 4.69512e-18
9647.99525 5.38703e-18
9650.00228 5.64338e-18
9651.99913 5.92518e-18
9653.99598 5.93324e-18
9656.00302 5.53504e-18
9657.99986 4.95225e-18
9659.99671 4.48923e-18
9662.00375 3.86968e-18
9664.00060 3.86662e-18
9665.99744 4.56999e-18
9668.00448 4.98870e-18
9670.00133 5.12871e-18
9671.99818 5.13219e-18
9673.99502 5.03570e-18
9676.00206 4.80217e-18
9677.99891 4.60877e-18
9679.99576 4.15467e-18
9682.00279 4.19821e-18
9683.99964 5.01844e-18
9685.99649 5.66421e-18
9688.00352 5.39072e-18
9690.00037 4.55621e-18
9691.99722 4.20990e-18
9694.00426 4.00422e-18
9696.00110 3.89384e-18
9697.99795 3.93043e-18
9699.99480 4.00817e-18
9702.00184 4.06119e-18
9703.99868 4.14308e-18
9705.99553 4.39043e-18
9708.00257 4.89997e-18
9709.99942 5.17013e-18
9711.99626 5.33229e-18
9714.00330 5.43368e-18
9716.00015 5.43126e-18
9717.99700 5.40061e-18
9720.00403 5.56166e-18
9722.00088 5.96715e-18
9723.99773 6.00832e-18
9726.00476 5.91197e-18
9728.00161 5.56380e-18
9729.99846 4.75075e-18
9731.99531 3.90447e-18
9734.00234 3.60147e-18
9735.99919 3.58492e-18
9737.99604 3.92528e-18
9740.00308 4.87469e-18
9741.99992 5.59050e-18
9743.99677 6.25956e-18
9746.00381 6.70076e-18
9748.00066 6.66572e-18
9749.99750 6.24685e-18
9751.99435 5.87140e-18
9754.00139 5.21579e-18
9755.99824 4.85505e-18
9757.99508 4.60655e-18
9760.00212 4.62995e-18
9761.99897 5.20577e-18
9763.99582 6.12290e-18
9766.00285 6.14705e-18
9767.99970 5.39526e-18
9769.99655 4.94279e-18
9772.00358 4.19521e-18
9774.00043 3.95892e-18
9775.99728 4.76924e-18
9778.00432 5.99611e-18
9780.00116 6.14413e-18
9781.99801 5.39119e-18
9784.00505 5.26036e-18
9786.00190 5.58872e-18
9787.99874 5.52311e-18
9789.99559 4.78699e-18
9792.00263 3.87721e-18
9793.99948 3.40720e-18
9795.99632 2.96983e-18
9798.00336 3.40449e-18
9800.00021 5.32352e-18
9801.99706 6.08789e-18
9804.00409 5.46205e-18
9806.00094 4.47012e-18
9807.99779 3.84483e-18
9809.99464 3.16122e-18
9812.00167 3.31772e-18
9813.99852 4.74658e-18
9815.99537 5.15223e-18
9818.00240 4.65157e-18
9819.99925 3.93207e-18
9821.99610 3.17940e-18
9824.00314 2.29105e-18
9825.99998 2.52438e-18
9827.99683 4.23377e-18
9830.00387 4.82060e-18
9832.00072 4.73670e-18
9833.99756 4.48088e-18
9836.00460 4.07246e-18
9838.00145 3.57249e-18
9839.99830 3.69000e-18
9841.99514 4.46646e-18
9844.00218 4.82601e-18
9845.99903 5.06845e-18
9847.99588 5.25221e-18
9850.00291 5.42127e-18
9851.99976 5.50645e-18
9853.99661 5.35396e-18
9856.00364 4.87539e-18
9858.00049 4.76370e-18
9859.99734 4.92299e-18
9862.00438 5.00200e-18
9864.00122 5.07201e-18
9865.99807 5.02371e-18
9868.00511 4.62626e-18
9870.00196 3.89372e-18
9871.99880 3.45200e-18
9873.99565 2.88469e-18
9876.00269 2.85157e-18
9877.99954 3.61360e-18
9879.99638 4.35059e-18
9882.00342 4.40583e-18
9884.00027 4.07788e-18
9885.99712 3.91385e-18
9888.00415 3.53354e-18
9890.00100 3.56327e-18
9891.99785 4.31476e-18
9893.99470 4.65109e-18
9896.00173 3.77172e-18
9897.99858 2.26390e-18
9899.99543 1.95877e-18
9902.00246 2.52713e-18
9903.99931 2.86272e-18
9905.99616 3.44157e-18
9908.00320 3.82537e-18
9910.00004 3.83096e-18
9911.99689 3.66921e-18
9914.00393 3.68992e-18
9916.00078 3.67922e-18
9917.99762 3.96280e-18
9920.00466 4.81090e-18
9922.00151 5.15754e-18
9923.99836 4.77008e-18
9925.99520 4.11119e-18
9928.00224 3.62711e-18
9929.99909 2.92704e-18
9931.99594 3.20445e-18
9934.00297 4.62171e-18
9935.99982 5.53425e-18
9937.99667 6.16629e-18
9940.00370 6.40786e-18
9942.00055 5.79836e-18
9943.99740 4.34282e-18
9946.00444 4.48372e-18
9948.00128 6.38766e-18
9949.99813 6.94392e-18
9951.99498 6.29685e-18
9954.00202 5.52953e-18
9955.99886 5.19570e-18
9957.99571 4.99103e-18
9960.00275 4.74432e-18
9961.99960 4.08138e-18
9963.99644 4.43782e-18
9966.00348 6.62895e-18
9968.00033 7.51509e-18
9969.99718 5.38022e-18
9972.00421 1.89941e-18
9974.00106 8.20392e-19
9975.99791 1.23624e-18
9978.00494 1.33194e-18
9980.00179 1.74218e-18
9981.99864 2.21402e-18
9983.99549 2.74804e-18
9986.00252 3.32736e-18
9987.99937 3.85301e-18
9989.99622 4.41393e-18
9992.00326 4.76816e-18
9994.00010 5.00276e-18
9995.99695 5.08388e-18
9998.00399 4.90972e-18
10000.00084 4.69845e-18
