# wavelength flux
3800.00380 1.28415e-17
3803.04390 1.17107e-17
3806.08400 1.26430e-17
3809.12410 1.31385e-17
3812.16420 1.35737e-17
3815.20430 1.25762e-17
3818.24440 1.27428e-17
3821.29460 1.32943e-17
3824.33470 1.29495e-17
3827.37480 1.37244e-17
3830.41490 1.28716e-17
3833.45500 1.31458e-17
3836.49510 1.36297e-17
3839.53520 1.36281e-17
3842.57530 1.36446e-17
3845.62550 1.35780e-17
3848.66560 1.38890e-17
3851.70570 1.30309e-17
3854.74580 1.24949e-17
3857.78590 1.32888e-17
3860.82600 1.36543e-17
3863.86610 1.38590e-17
3866.90620 1.34110e-17
3869.95640 1.37188e-17
3872.99650 1.41123e-17
3876.03660 1.42674e-17
3879.07670 1.43423e-17
3882.11680 1.33799e-17
3885.15690 1.43258e-17
3888.19700 1.38666e-17
3891.24720 1.37156e-17
3894.28730 1.38462e-17
3897.32740 1.43973e-17
3900.36750 1.36484e-17
3903.40760 1.40937e-17
3906.44770 1.34792e-17
3909.48780 1.40263e-17
3912.52790 1.46407e-17
3915.57810 1.43237e-17
3918.61820 1.41869e-17
3921.65830 1.43126e-17
3924.69840 1.50164e-17
3927.73850 1.71017e-17
3930.77860 1.61503e-17
3933.81870 1.39369e-17
3936.85880 1.39643e-17
3939.90900 1.39353e-17
3942.94910 1.42540e-17
3945.98920 1.44684e-17
3949.02930 1.46613e-17
3952.06940 1.43212e-17
3955.10950 1.37734e-17
3958.14960 1.43451e-17
3961.19980 1.42710e-17
3964.23990 1.42884e-17
3967.28000 1.35296e-17
3970.32010 1.19749e-17
3973.36020 1.29044e-17
3976.40030 1.36294e-17
3979.44040 1.37565e-17
3982.48050 1.44467e-17
3985.53070 1.42672e-17
3988.57080 1.45480e-17
3991.61090 1.40387e-17
3994.65100 1.39407e-17
3997.69110 1.40953e-17
4000.73120 1.41186e-17
4003.77130 1.40573e-17
4006.81140 1.42059e-17
4009.86160 1.54816e-17
4012.90170 1.65132e-17
4015.94180 1.51843e-17
4018.98190 1.44298e-17
4022.02200 1.43641e-17
4025.06210 1.40257e-17
4028.10220 1.44668e-17
4031.14230 1.46113e-17
4034.19250 1.43552e-17
4037.23260 1.46147e-17
4040.27270 1.40429e-17
4043.31280 1.36710e-17
4046.35290 1.43722e-17
4049.39300 1.37972e-17
4052.43310 1.45169e-17
4055.48330 1.41379e-17
4058.52340 1.44518e-17
4061.56350 1.46987e-17
4064.60360 1.45992e-17
4067.64370 1.50426e-17
4070.68380 1.45470e-17
4073.72390 1.41283e-17
4076.76400 1.44213e-17
4079.81420 1.41973e-17
4082.85430 1.41842e-17
4085.89440 1.41345e-17
4088.93450 1.43281e-17
4091.97460 1.46202e-17
4095.01470 1.44507e-17
4098.05480 1.45716e-17
4101.09490 1.47961e-17
4104.14510 1.44238e-17
4107.18520 1.51302e-17
4110.22530 1.46397e-17
4113.26540 1.43824e-17
4116.30550 1.50690e-17
4119.34560 1.49586e-17
4122.38570 1.39433e-17
4125.42580 1.39283e-17
4128.47600 1.43853e-17
4131.51610 1.43449e-17
4134.55620 1.43865e-17
4137.59630 1.42424e-17
4140.63640 1.59076e-17
4143.67650 1.88697e-17
4146.71660 1.84673e-17
4149.76680 1.47283e-17
4152.80690 1.43434e-17
4155.84700 1.43666e-17
4158.88710 1.40641e-17
4161.92720 1.41792e-17
4164.96730 1.47890e-17
4168.00740 1.53319e-17
4171.04750 1.47056e-17
4174.09770 1.43503e-17
4177.13780 1.42925e-17
4180.17790 1.47784e-17
4183.21800 1.44390e-17
4186.25810 1.43933e-17
4189.29820 1.44049e-17
4192.33830 1.44883e-17
4195.37840 1.43962e-17
4198.42860 1.47296e-17
4201.46870 1.44307e-17
4204.50880 1.45901e-17
4207.54890 1.46525e-17
4210.58900 1.49971e-17
4213.62910 1.47123e-17
4216.66920 1.47452e-17
4219.71940 1.50897e-17
4222.75950 1.46580e-17
4225.79960 1.46973e-17
4228.83970 1.46814e-17
4231.87980 1.53363e-17
4234.91990 1.48633e-17
4237.96000 1.50969e-17
4241.00010 1.55910e-17
4244.05030 1.53364e-17
4247.09040 1.54805e-17
4250.13050 1.61047e-17
4253.17060 1.57999e-17
4256.21070 1.60050e-17
4259.25080 1.53712e-17
4262.29090 1.55188e-17
4265.33100 1.53177e-17
4268.38120 1.61110e-17
4271.42130 1.56343e-17
4274.46140 1.57515e-17
4277.50150 1.56180e-17
4280.54160 1.55735e-17
4283.58170 1.59229e-17
4286.62180 1.62246e-17
4289.67200 1.65081e-17
4292.71210 1.59175e-17
4295.75220 1.64708e-17
4298.79230 1.61121e-17
4301.83240 1.54755e-17
4304.87250 1.58377e-17
4307.91260 1.62029e-17
4310.95270 1.61327e-17
4314.00290 1.66531e-17
4317.04300 1.69128e-17
4320.08310 1.64336e-17
4323.12320 1.64958e-17
4326.16330 1.68921e-17
4329.20340 1.64775e-17
4332.24350 1.69006e-17
4335.28360 1.69633e-17
4338.33380 1.70551e-17
4341.37390 1.68549e-17
4344.41400 1.67000e-17
4347.45410 1.69167e-17
4350.49420 1.71508e-17
4353.53430 1.69354e-17
4356.57440 1.65486e-17
4359.62460 1.65727e-17
4362.66470 1.69837e-17
4365.70480 1.70119e-17
4368.74490 1.66130e-17
4371.78500 1.68061e-17
4374.82510 1.68190e-17
4377.86520 1.68086e-17
4380.90530 1.67983e-17
4383.95550 1.67879e-17
4386.99560 1.67776e-17
4390.03570 1.67672e-17
4393.07580 1.67568e-17
4396.11590 1.67465e-17
4399.15600 1.67361e-17
4402.19610 1.67257e-17
4405.23620 1.67154e-17
4408.28640 1.67050e-17
4411.32650 1.66946e-17
4414.36660 1.66842e-17
4417.40670 1.66739e-17
4420.44680 1.66635e-17
4423.48690 1.66531e-17
4426.52700 1.66427e-17
4429.56710 1.66323e-17
4432.61730 1.66219e-17
4435.65740 1.66115e-17
4438.69750 1.66011e-17
4441.73760 1.63490e-17
4444.77770 1.59852e-17
4447.81780 1.57414e-17
4450.85790 1.56905e-17
4453.90810 1.61579e-17
4456.94820 1.55169e-17
4459.98830 1.55133e-17
4463.02840 1.52320e-17
4466.06850 1.52985e-17
4469.10860 1.53138e-17
4472.14870 1.51083e-17
4475.18880 1.51493e-17
4478.23900 1.57389e-17
4481.27910 1.58008e-17
4484.31920 1.56990e-17
4487.35930 1.61946e-17
4490.39940 1.61516e-17
4493.43950 1.57056e-17
4496.47960 1.58049e-17
4499.51970 1.62142e-17
4502.56990 1.58280e-17
4505.61000 1.59735e-17
4508.65010 1.62383e-17
4511.69020 1.62245e-17
4514.73030 1.66541e-17
4517.77040 1.66435e-17
4520.81050 1.64121e-17
4523.85060 1.63893e-17
4526.90080 1.57796e-17
4529.94090 1.59134e-17
4532.98100 1.61583e-17
4536.02110 1.60164e-17
4539.06120 1.58254e-17
4542.10130 1.56546e-17
4545.14140 1.60492e-17
4548.19160 1.58197e-17
4551.23170 1.57793e-17
4554.27180 1.60939e-17
4557.31190 1.61802e-17
4560.35200 1.65238e-17
4563.39210 1.60657e-17
4566.43220 1.58412e-17
4569.47230 1.59995e-17
4572.52250 1.63600e-17
4575.56260 1.63644e-17
4578.60270 1.63261e-17
4581.64280 1.62457e-17
4584.68290 1.61569e-17
4587.72300 1.61548e-17
4590.76310 1.60061e-17
4593.80320 1.61077e-17
4596.85340 1.59425e-17
4599.89350 1.62433e-17
4602.93360 1.60663e-17
4605.97370 1.59319e-17
4609.01380 1.58267e-17
4612.05390 1.58861e-17
4615.09400 1.55518e-17
4618.14420 1.56988e-17
4621.18430 1.53265e-17
4624.22440 1.59351e-17
4627.26450 1.56717e-17
4630.30460 1.56460e-17
4633.34470 1.60600e-17
4636.38480 1.60246e-17
4639.42490 1.58744e-17
4642.47510 1.55806e-17
4645.51520 1.56038e-17
4648.55530 1.54838e-17
4651.59540 1.51334e-17
4654.63550 1.55218e-17
4657.67560 1.56873e-17
4660.71570 1.58136e-17
4663.75580 1.52941e-17
4666.80600 1.53542e-17
4669.84610 1.52908e-17
4672.88620 1.53658e-17
4675.92630 1.55285e-17
4678.96640 1.54856e-17
4682.00650 1.52553e-17
4685.04660 1.55998e-17
4688.09680 1.57892e-17
4691.13690 1.58507e-17
4694.17700 1.52663e-17
4697.21710 1.55236e-17
4700.25720 1.54307e-17
4703.29730 1.59856e-17
4706.33740 1.59273e-17
4709.37750 1.61016e-17
4712.42770 1.58261e-17
4715.46780 1.52504e-17
4718.50790 1.52413e-17
4721.54800 1.58335e-17
4724.58810 1.59967e-17
4727.62820 1.57192e-17
4730.66830 1.55013e-17
4733.70840 1.56344e-17
4736.75860 1.56839e-17
4739.79870 1.58236e-17
4742.83880 1.57502e-17
4745.87890 1.57401e-17
4748.91900 1.57590e-17
4751.95910 1.57865e-17
4754.99920 1.55721e-17
4758.04940 1.57521e-17
4761.08950 1.56290e-17
4764.12960 1.60066e-17
4767.16970 1.57395e-17
4770.20980 1.61073e-17
4773.24990 1.57921e-17
4776.29000 1.57362e-17
4779.33010 1.57021e-17
4782.38030 1.61146e-17
4785.42040 1.60604e-17
4788.46050 1.61700e-17
4791.50060 1.62729e-17
4794.54070 1.66347e-17
4797.58080 1.67114e-17
4800.62090 1.60109e-17
4803.66100 1.58376e-17
4806.71120 1.63230e-17
4809.75130 1.63988e-17
4812.79140 1.63556e-17
4815.83150 1.65581e-17
4818.87160 1.67828e-17
4821.91170 1.66551e-17
4824.95180 1.66108e-17
4827.99190 1.68575e-17
4831.04210 1.70118e-17
4834.08220 1.70514e-17
4837.12230 1.70030e-17
4840.16240 1.70323e-17
4843.20250 1.73691e-17
4846.24260 1.71216e-17
4849.28270 1.72830e-17
4852.33290 1.75557e-17
4855.37300 1.70071e-17
4858.41310 1.69106e-17
4861.45320 1.70205e-17
4864.49330 1.77610e-17
4867.53340 1.75603e-17
4870.57350 1.72718e-17
4873.61360 1.75812e-17
4876.66380 1.77973e-17
4879.70390 1.76752e-17
4882.74400 1.78538e-17
4885.78410 1.75600e-17
4888.82420 1.75588e-17
4891.86430 1.75798e-17
4894.90440 1.76008e-17
4897.94450 1.76218e-17
4900.99470 1.76428e-17
4904.03480 1.76637e-17
4907.07490 1.76847e-17
4910.11500 1.77056e-17
4913.15510 1.77265e-17
4916.19520 1.77475e-17
4919.23530 1.77684e-17
4922.27540 1.77893e-17
4925.32560 1.78101e-17
4928.36570 1.78310e-17
4931.40580 1.77747e-17
4934.44590 1.82385e-17
4937.48600 1.83278e-17
4940.52610 1.83933e-17
4943.56620 1.84579e-17
4946.61640 1.84831e-17
4949.65650 1.86797e-17
4952.69660 1.83075e-17
4955.73670 1.82332e-17
4958.77680 1.81439e-17
4961.81690 1.83112e-17
4964.85700 1.83189e-17
4967.89710 1.85508e-17
4970.94730 1.87338e-17
4973.98740 1.90535e-17
4977.02750 1.88090e-17
4980.06760 1.87882e-17
4983.10770 1.86862e-17
4986.14780 1.85112e-17
4989.18790 1.82677e-17
4992.22800 1.83082e-17
4995.27820 1.83487e-17
4998.31830 1.83891e-17
5001.35840 1.84296e-17
5004.39850 1.84700e-17
5007.43860 1.85104e-17
5010.47870 1.85508e-17
5013.51880 1.85911e-17
5016.56900 1.86315e-17
5019.60910 1.86718e-17
5022.64920 1.87121e-17
5025.68930 1.87524e-17
5028.72940 1.87927e-17
5031.76950 1.91379e-17
5034.80960 1.97017e-17
5037.84970 1.93996e-17
5040.89990 1.93830e-17
5043.94000 1.93665e-17
5046.98010 1.93499e-17
5050.02020 1.93334e-17
5053.06030 1.93169e-17
5056.10040 1.93004e-17
5059.14050 1.92839e-17
5062.18060 1.92674e-17
5065.23080 1.92510e-17
5068.27090 1.92345e-17
5071.31100 1.92181e-17
5074.35110 1.92016e-17
5077.39120 1.91852e-17
5080.43130 1.92616e-17
5083.47140 1.93637e-17
5086.52160 1.93553e-17
5089.56170 1.94666e-17
5092.60180 1.94987e-17
5095.64190 1.93608e-17
5098.68200 1.92466e-17
5101.72210 1.89906e-17
5104.76220 1.95199e-17
5107.80230 1.97308e-17
5110.85250 1.98265e-17
5113.89260 1.95925e-17
5116.93270 1.93921e-17
5119.97280 1.94331e-17
5123.01290 1.94487e-17
5126.05300 1.97753e-17
5129.09310 1.97469e-17
5132.13320 1.94918e-17
5135.18340 1.95659e-17
5138.22350 1.94038e-17
5141.26360 1.93771e-17
5144.30370 1.92232e-17
5147.34380 1.99998e-17
5150.38390 2.03906e-17
5153.42400 1.96143e-17
5156.46410 1.93607e-17
5159.51430 1.97293e-17
5162.55440 1.94104e-17
5165.59450 1.95576e-17
5168.63460 1.96317e-17
5171.67470 1.96037e-17
5174.71480 1.94481e-17
5177.75490 1.96782e-17
5180.80510 1.95436e-17
5183.84520 1.94087e-17
5186.88530 1.96228e-17
5189.92540 1.92569e-17
5192.96550 1.97282e-17
5196.00560 1.98746e-17
5199.04570 1.95650e-17
5202.08580 1.91073e-17
5205.13600 1.87250e-17
5208.17610 1.92029e-17
5211.21620 1.94654e-17
5214.25630 1.89492e-17
5217.29640 1.88578e-17
5220.33650 1.90690e-17
5223.37660 1.88606e-17
5226.41670 1.87644e-17
5229.46690 1.85723e-17
5232.50700 1.87016e-17
5235.54710 1.88871e-17
5238.58720 1.91570e-17
5241.62730 1.91326e-17
5244.66740 1.84918e-17
5247.70750 1.84239e-17
5250.74760 1.88267e-17
5253.79780 1.91223e-17
5256.83790 1.88714e-17
5259.87800 1.85139e-17
5262.91810 1.87660e-17
5265.95820 1.85918e-17
5268.99830 1.83689e-17
5272.03840 1.82883e-17
5275.08860 1.82010e-17
5278.12870 1.83014e-17
5281.16880 1.84848e-17
5284.20890 1.85177e-17
5287.24900 1.84788e-17
5290.28910 1.83581e-17
5293.32920 1.82775e-17
5296.36930 1.79272e-17
5299.41950 1.85120e-17
5302.45960 1.82765e-17
5305.49970 1.86363e-17
5308.53980 1.85492e-17
5311.57990 1.83046e-17
5314.62000 1.85156e-17
5317.66010 1.85642e-17
5320.70020 1.84459e-17
5323.75040 1.83512e-17
5326.79050 1.79125e-17
5329.83060 1.78581e-17
5332.87070 1.82417e-17
5335.91080 1.79596e-17
5338.95090 1.79528e-17
5341.99100 1.81258e-17
5345.04120 1.84280e-17
5348.08130 1.84985e-17
5351.12140 1.74748e-17
5354.16150 1.79804e-17
5357.20160 1.79286e-17
5360.24170 1.80305e-17
5363.28180 1.73563e-17
5366.32190 1.77276e-17
5369.37210 1.76623e-17
5372.41220 1.75436e-17
5375.45230 1.73635e-17
5378.49240 1.76423e-17
5381.53250 1.72723e-17
5384.57260 1.72101e-17
5387.61270 1.69398e-17
5390.66290 1.70559e-17
5393.70300 1.70924e-17
5396.74310 1.67498e-17
5399.78320 1.70964e-17
5402.82330 1.69070e-17
5405.86340 1.67998e-17
5408.90350 1.67518e-17
5411.94360 1.68868e-17
5414.99380 1.67374e-17
5418.03390 1.69786e-17
5421.07400 1.69296e-17
5424.11410 1.68644e-17
5427.15420 1.69723e-17
5430.19430 1.67103e-17
5433.23440 1.68223e-17
5436.27450 1.68548e-17
5439.32470 1.70455e-17
5442.36480 1.70561e-17
5445.40490 1.69209e-17
5448.44500 1.68334e-17
5451.48510 1.68857e-17
5454.52520 1.71595e-17
5457.56530 1.69533e-17
5460.60540 1.71741e-17
5463.65560 1.71019e-17
5466.69570 1.69722e-17
5469.73580 1.70342e-17
5472.77590 1.69277e-17
5475.81600 1.68189e-17
5478.85610 1.68610e-17
5481.89620 1.71298e-17
5484.94640 1.75717e-17
5487.98650 1.73061e-17
5491.02660 1.71477e-17
5494.06670 1.74056e-17
5497.10680 1.74612e-17
5500.14690 1.71004e-17
5503.18700 1.69349e-17
5506.22710 1.71265e-17
5509.27730 1.71612e-17
5512.31740 1.70267e-17
5515.35750 1.70431e-17
5518.39760 1.71981e-17
5521.43770 1.72661e-17
5524.47780 1.73143e-17
5527.51790 1.74129e-17
5530.55800 1.71728e-17
5533.60820 1.70605e-17
5536.64830 1.71051e-17
5539.68840 1.67182e-17
5542.72850 1.67573e-17
5545.76860 1.70374e-17
5548.80870 1.72362e-17
5551.84880 1.72174e-17
5554.88890 1.73819e-17
5557.93910 1.69843e-17
5560.97920 1.67754e-17
5564.01930 1.69725e-17
5567.05940 1.70604e-17
5570.09950 1.67293e-17
5573.13960 1.74938e-17
5576.17970 1.75772e-17
5579.22990 1.72956e-17
5582.27000 1.72827e-17
5585.31010 1.69244e-17
5588.35020 1.71109e-17
5591.39030 1.64255e-17
5594.43040 1.69578e-17
5597.47050 1.73389e-17
5600.51060 1.71159e-17
5603.56080 1.70352e-17
5606.60090 1.70414e-17
5609.64100 1.72608e-17
5612.68110 1.70179e-17
5615.72120 1.71847e-17
5618.76130 1.72128e-17
5621.80140 1.68032e-17
5624.84150 1.69084e-17
5627.89170 1.74262e-17
5630.93180 1.75720e-17
5633.97190 1.75233e-17
5637.01200 1.72054e-17
5640.05210 1.67853e-17
5643.09220 1.68030e-17
5646.13230 1.71434e-17
5649.17240 1.71640e-17
5652.22260 1.71815e-17
5655.26270 1.74500e-17
5658.30280 1.72137e-17
5661.34290 1.71978e-17
5664.38300 1.63776e-17
5667.42310 1.65143e-17
5670.46320 1.74062e-17
5673.51340 1.72811e-17
5676.55350 1.72824e-17
5679.59360 1.71018e-17
5682.63370 1.71731e-17
5685.67380 1.71196e-17
5688.71390 1.71711e-17
5691.75400 1.72340e-17
5694.79410 1.75898e-17
5697.84430 1.73749e-17
5700.88440 1.71164e-17
5703.92450 1.73153e-17
5706.96460 1.69981e-17
5710.00470 1.71176e-17
5713.04480 1.74228e-17
5716.08490 1.70905e-17
5719.12500 1.73588e-17
5722.17520 1.70622e-17
5725.21530 1.68964e-17
5728.25540 1.68320e-17
5731.29550 1.66343e-17
5734.33560 1.69029e-17
5737.37570 1.69613e-17
5740.41580 1.67930e-17
5743.46600 1.69022e-17
5746.50610 1.67841e-17
5749.54620 1.67176e-17
5752.58630 1.66993e-17
5755.62640 1.66432e-17
5758.66650 1.66897e-17
5761.70660 1.64039e-17
5764.74670 1.64035e-17
5767.79690 1.65810e-17
5770.83700 1.62858e-17
5773.87710 1.59900e-17
5776.91720 1.59800e-17
5779.95730 1.61933e-17
5782.99740 1.61391e-17
5786.03750 1.60011e-17
5789.07760 1.62108e-17
5792.12780 1.62359e-17
5795.16790 1.58414e-17
5798.20800 1.59017e-17
5801.24810 1.58606e-17
5804.28820 1.60770e-17
5807.32830 1.61664e-17
5810.36840 1.60195e-17
5813.40850 1.63044e-17
5816.45870 1.63541e-17
5819.49880 1.62294e-17
5822.53890 1.62511e-17
5825.57900 1.60548e-17
5828.61910 1.56733e-17
5831.65920 1.57013e-17
5834.69930 1.53055e-17
5837.74950 1.49637e-17
5840.78960 1.51632e-17
5843.82970 1.55221e-17
5846.86980 1.57343e-17
5849.90990 1.59481e-17
5852.95000 1.59135e-17
5855.99010 1.55629e-17
5859.03020 1.54525e-17
5862.08040 1.54988e-17
5865.12050 1.55967e-17
5868.16060 1.57800e-17
5871.20070 1.54594e-17
5874.24080 1.55411e-17
5877.28090 1.56184e-17
5880.32100 1.55675e-17
5883.37120 1.56759e-17
5886.41130 1.51304e-17
5889.45140 1.49566e-17
5892.49150 1.52700e-17
5895.53160 1.51495e-17
5898.57170 1.52156e-17
5901.61180 1.55509e-17
5904.65190 1.55775e-17
5907.70210 1.56041e-17
5910.74220 1.56307e-17
5913.78230 1.56573e-17
5916.82240 1.56838e-17
5919.86250 1.57104e-17
5922.90260 1.57370e-17
5925.94270 1.57636e-17
5928.98280 1.57901e-17
5932.03300 1.58167e-17
5935.07310 1.58433e-17
5938.11320 1.58698e-17
5941.15330 1.58964e-17
5944.19340 1.59229e-17
5947.23350 1.59495e-17
5950.27360 1.59760e-17
5953.31370 1.60026e-17
5956.36390 1.60291e-17
5959.40400 1.60557e-17
5962.44410 1.60822e-17
5965.48420 1.61087e-17
5968.52430 1.62959e-17
5971.56440 1.62849e-17
5974.60450 1.61153e-17
5977.65470 1.64394e-17
5980.69480 1.58544e-17
5983.73490 1.65968e-17
5986.77500 1.63772e-17
5989.81510 1.67675e-17
5992.85520 1.63029e-17
5995.89530 1.63469e-17
5998.93540 1.60307e-17
6001.98560 1.61950e-17
6005.02570 1.65415e-17
6008.06580 1.63418e-17
6011.10590 1.63976e-17
6014.14600 1.65176e-17
6017.18610 1.66459e-17
6020.22620 1.67114e-17
6023.26630 1.67628e-17
6026.31650 1.67752e-17
6029.35660 1.68030e-17
6032.39670 1.68256e-17
6035.43680 1.68317e-17
6038.47690 1.68838e-17
6041.51700 1.67059e-17
6044.55710 1.65305e-17
6047.60730 1.65217e-17
6050.64740 1.64285e-17
6053.68750 1.68741e-17
6056.72760 1.65220e-17
6059.76770 1.67437e-17
6062.80780 1.67035e-17
6065.84790 1.65900e-17
6068.88800 1.66702e-17
6071.93820 1.62435e-17
6074.97830 1.65812e-17
6078.01840 1.66371e-17
6081.05850 1.62035e-17
6084.09860 1.63839e-17
6087.13870 1.62829e-17
6090.17880 1.66407e-17
6093.21890 1.64040e-17
6096.26910 1.61915e-17
6099.30920 1.61337e-17
6102.34930 1.60498e-17
6105.38940 1.62588e-17
6108.42950 1.64222e-17
6111.46960 1.65514e-17
6114.50970 1.64468e-17
6117.54980 1.61783e-17
6120.60000 1.62788e-17
6123.64010 1.62230e-17
6126.68020 1.65877e-17
6129.72030 1.64459e-17
6132.76040 1.61165e-17
6135.80050 1.61416e-17
6138.84060 1.59813e-17
6141.89080 1.62335e-17
6144.93090 1.62168e-17
6147.97100 1.62349e-17
6151.01110 1.60386e-17
6154.05120 1.60307e-17
6157.09130 1.60497e-17
6160.13140 1.57666e-17
6163.17150 1.60758e-17
6166.22170 1.61246e-17
6169.26180 1.63993e-17
6172.30190 1.61959e-17
6175.34200 1.63794e-17
6178.38210 1.61066e-17
6181.42220 1.57563e-17
6184.46230 1.57604e-17
6187.50240 1.61991e-17
6190.55260 1.59992e-17
6193.59270 1.58778e-17
6196.63280 1.65632e-17
6199.67290 1.62815e-17
6202.71300 1.60176e-17
6205.75310 1.61330e-17
6208.79320 1.61900e-17
6211.83330 1.60904e-17
6214.88350 1.61557e-17
6217.92360 1.59454e-17
6220.96370 1.62582e-17
6224.00380 1.63646e-17
6227.04390 1.58160e-17
6230.08400 1.59756e-17
6233.12410 1.56583e-17
6236.17430 1.56625e-17
6239.21440 1.60414e-17
6242.25450 1.56471e-17
6245.29460 1.59151e-17
6248.33470 1.59993e-17
6251.37480 1.58011e-17
6254.41490 1.56434e-17
6257.45500 1.55595e-17
6260.50520 1.55366e-17
6263.54530 1.58654e-17
6266.58540 1.58862e-17
6269.62550 1.57064e-17
6272.66560 1.55614e-17
6275.70570 1.58111e-17
6278.74580 1.57469e-17
6281.78590 1.59729e-17
6284.83610 1.58448e-17
6287.87620 1.57998e-17
6290.91630 1.57131e-17
6293.95640 1.59448e-17
6296.99650 1.57370e-17
6300.03660 1.59571e-17
6303.07670 1.59382e-17
6306.12690 1.59547e-17
6309.16700 1.58263e-17
6312.20710 1.57162e-17
6315.24720 1.59237e-17
6318.28730 1.59179e-17
6321.32740 1.55737e-17
6324.36750 1.58742e-17
6327.40760 1.58562e-17
6330.45780 1.54715e-17
6333.49790 1.55667e-17
6336.53800 1.53643e-17
6339.57810 1.56848e-17
6342.61820 1.55018e-17
6345.65830 1.50600e-17
6348.69840 1.48787e-17
6351.73850 1.52643e-17
6354.78870 1.54789e-17
6357.82880 1.56110e-17
6360.86890 1.57612e-17
6363.90900 1.64864e-17
6366.94910 1.67557e-17
6369.98920 1.58918e-17
6373.02930 1.54311e-17
6376.06940 1.55887e-17
6379.11960 1.55941e-17
6382.15970 1.55519e-17
6385.19980 1.54258e-17
6388.23990 1.54566e-17
6391.28000 1.55781e-17
6394.32010 1.55958e-17
6397.36020 1.51596e-17
6400.41040 1.53950e-17
6403.45050 1.52626e-17
6406.49060 1.52415e-17
6409.53070 1.51593e-17
6412.57080 1.52261e-17
6415.61090 1.51749e-17
6418.65100 1.54986e-17
6421.69110 1.52067e-17
6424.74130 1.52635e-17
6427.78140 1.52697e-17
6430.82150 1.53125e-17
6433.86160 1.53028e-17
6436.90170 1.48449e-17
6439.94180 1.51810e-17
6442.98190 1.50917e-17
6446.03210 1.52173e-17
6449.07220 1.50991e-17
6452.11230 1.48261e-17
6455.15240 1.50019e-17
6458.19250 1.55822e-17
6461.23260 1.54575e-17
6464.27270 1.49842e-17
6467.31280 1.47070e-17
6470.35290 1.49754e-17
6473.40310 1.50088e-17
6476.44320 1.50538e-17
6479.48330 1.49691e-17
6482.52340 1.48353e-17
6485.56350 1.50384e-17
6488.60360 1.48382e-17
6491.64370 1.46606e-17
6494.69390 1.46090e-17
6497.73400 1.45865e-17
6500.77410 1.48521e-17
6503.81420 1.48265e-17
6506.85430 1.45098e-17
6509.89440 1.43442e-17
6512.93450 1.44235e-17
6515.97460 1.42058e-17
6519.02480 1.42360e-17
6522.06490 1.42013e-17
6525.10500 1.44688e-17
6528.14510 1.44626e-17
6531.18520 1.40668e-17
6534.22530 1.41464e-17
6537.26540 1.43890e-17
6540.31560 1.44206e-17
6543.35570 1.43080e-17
6546.39580 1.44655e-17
6549.43590 1.46002e-17
6552.47600 1.44773e-17
6555.51610 1.42740e-17
6558.55620 1.45066e-17
6561.59630 1.44291e-17
6564.64650 1.45049e-17
6567.68660 1.47604e-17
6570.72670 1.46468e-17
6573.76680 1.47535e-17
6576.80690 1.46280e-17
6579.84700 1.45841e-17
6582.88710 1.44050e-17
6585.92720 1.43283e-17
6588.97740 1.44202e-17
6592.01750 1.43319e-17
6595.05760 1.41327e-17
6598.09770 1.42056e-17
6601.13780 1.42784e-17
6604.17790 1.43512e-17
6607.21800 1.44240e-17
6610.25810 1.44968e-17
6613.30830 1.45696e-17
6616.34840 1.46423e-17
6619.38850 1.47151e-17
6622.42860 1.47878e-17
6625.46870 1.48605e-17
6628.50880 1.49332e-17
6631.54890 1.50059e-17
6634.59910 1.50785e-17
6637.63920 1.49704e-17
6640.67930 1.48623e-17
6643.71940 1.47543e-17
6646.75950 1.46463e-17
6649.79960 1.45382e-17
6652.83970 1.44303e-17
6655.87980 1.43223e-17
6658.93000 1.42144e-17
6661.97010 1.41065e-17
6665.01020 1.39986e-17
6668.05030 1.38907e-17
6671.09040 1.38777e-17
6674.13050 1.37964e-17
6677.17060 1.34502e-17
6680.21070 1.34456e-17
6683.26090 1.31560e-17
6686.30100 1.35571e-17
6689.34110 1.34328e-17
6692.38120 1.34397e-17
6695.42130 1.35871e-17
6698.46140 1.31268e-17
6701.50150 1.28520e-17
6704.55170 1.31250e-17
6707.59180 1.28820e-17
6710.63190 1.29917e-17
6713.67200 1.30902e-17
6716.71210 1.29711e-17
6719.75220 1.28924e-17
6722.79230 1.35954e-17
6725.83240 1.30298e-17
6728.88260 1.29061e-17
6731.92270 1.29475e-17
6734.96280 1.32476e-17
6738.00290 1.32826e-17
6741.04300 1.32204e-17
6744.08310 1.36767e-17
6747.12320 1.41855e-17
6750.16330 1.40110e-17
6753.21350 1.34378e-17
6756.25360 1.32768e-17
6759.29370 1.33080e-17
6762.33380 1.30646e-17
6765.37390 1.31339e-17
6768.41400 1.39632e-17
6771.45410 1.47923e-17
6774.49420 1.56212e-17
6777.54440 1.64499e-17
6780.58450 1.61516e-17
6783.62460 1.58535e-17
6786.66470 1.55554e-17
6789.70480 1.52573e-17
6792.74490 1.49594e-17
6795.78500 1.46615e-17
6798.83520 1.43636e-17
6801.87530 1.40658e-17
6804.91540 1.37682e-17
6807.95550 1.34705e-17
6810.99560 1.31730e-17
6814.03570 1.28755e-17
6817.07580 1.25780e-17
6820.11590 1.27181e-17
6823.16610 1.28398e-17
6826.20620 1.28341e-17
6829.24630 1.27272e-17
6832.28640 1.26573e-17
6835.32650 1.26417e-17
6838.36660 1.25028e-17
6841.40670 1.24182e-17
6844.45690 1.25525e-17
6847.49700 1.25285e-17
6850.53710 1.25046e-17
6853.57720 1.24807e-17
6856.61730 1.24568e-17
6859.65740 1.24330e-17
6862.69750 1.24091e-17
6865.73760 1.23852e-17
6868.77770 1.23613e-17
6871.82790 1.23375e-17
6874.86800 1.23136e-17
6877.90810 1.22897e-17
6880.94820 1.22659e-17
6883.98830 1.22420e-17
6887.02840 1.22182e-17
6890.06850 1.21943e-17
6893.11870 1.21705e-17
6896.15880 1.21467e-17
6899.19890 1.21229e-17
6902.23900 1.20990e-17
6905.27910 1.20752e-17
6908.31920 1.20514e-17
6911.35930 1.20276e-17
6914.39940 1.20038e-17
6917.44960 1.19800e-17
6920.48970 1.19562e-17
6923.52980 1.19324e-17
6926.56990 1.19087e-17
6929.61000 1.18849e-17
6932.65010 1.18611e-17
6935.69020 1.18373e-17
6938.74040 1.17499e-17
6941.78050 1.18496e-17
6944.82060 1.21318e-17
6947.86070 1.20302e-17
6950.90080 1.20221e-17
6953.94090 1.17405e-17
6956.98100 1.19600e-17
6960.02110 1.16811e-17
6963.06120 1.18880e-17
6966.11140 1.18867e-17
6969.15150 1.17411e-17
6972.19160 1.17780e-17
6975.23170 1.17025e-17
6978.27180 1.19107e-17
6981.31190 1.20517e-17
6984.35200 1.21534e-17
6987.40220 1.18861e-17
6990.44230 1.18211e-17
6993.48240 1.17181e-17
6996.52250 1.15954e-17
6999.56260 1.17487e-17
7002.60270 1.20193e-17
7005.64280 1.19043e-17
7008.68290 1.20704e-17
7011.73310 1.20497e-17
7014.77320 1.17960e-17
7017.81330 1.16910e-17
7020.85340 1.15732e-17
7023.89350 1.17787e-17
7026.93360 1.18696e-17
7029.97370 1.15385e-17
7033.02390 1.15133e-17
7036.06400 1.13982e-17
7039.10410 1.13864e-17
7042.14420 1.15579e-17
7045.18430 1.13437e-17
7048.22440 1.13898e-17
7051.26450 1.13356e-17
7054.30460 1.11820e-17
7057.35480 1.12929e-17
7060.39490 1.11699e-17
7063.43500 1.09188e-17
7066.47510 1.09257e-17
7069.51520 1.12074e-17
7072.55530 1.12386e-17
7075.59540 1.12620e-17
7078.63550 1.11615e-17
7081.68570 1.12203e-17
7084.72580 1.09379e-17
7087.76590 1.12111e-17
7090.80600 1.13929e-17
7093.84610 1.13076e-17
7096.88620 1.11547e-17
7099.92630 1.12074e-17
7102.97650 1.09398e-17
7106.01660 1.16760e-17
7109.05670 1.16267e-17
7112.09680 1.11760e-17
7115.13690 1.12049e-17
7118.17700 1.15294e-17
7121.21710 1.08786e-17
7124.25720 1.06314e-17
7127.30740 1.07640e-17
7130.34750 1.08875e-17
7133.38760 1.06902e-17
7136.42770 1.10851e-17
7139.46780 1.14643e-17
7142.50790 1.09968e-17
7145.54800 1.08946e-17
7148.58810 1.08743e-17
7151.63830 1.08950e-17
7154.67840 1.08476e-17
7157.71850 1.08503e-17
7160.75860 1.10867e-17
7163.79870 1.06675e-17
7166.83880 1.07110e-17
7169.87890 1.07810e-17
7172.91900 1.08525e-17
7175.96920 1.09027e-17
7179.00930 1.07360e-17
7182.04940 1.06517e-17
7185.08950 1.05619e-17
7188.12960 1.11514e-17
7191.16970 1.07285e-17
7194.20980 1.09168e-17
7197.26000 1.07687e-17
7200.30010 1.07558e-17
7203.34020 1.06364e-17
7206.38030 1.12387e-17
7209.42040 1.17055e-17
7212.46050 1.11500e-17
7215.50060 1.06642e-17
7218.54070 1.01180e-17
7221.59090 1.01586e-17
7224.63100 1.01044e-17
7227.67110 1.02991e-17
7230.71120 1.00051e-17
7233.75130 1.02233e-17
7236.79140 1.00645e-17
7239.83150 9.96297e-18
7242.88170 1.01348e-17
7245.92180 1.02029e-17
7248.96190 9.93759e-18
7252.00200 9.71284e-18
7255.04210 1.01543e-17
7258.08220 9.90196e-18
7261.12230 9.91565e-18
7264.16240 1.00507e-17
7267.20250 1.02439e-17
7270.25270 9.98884e-18
7273.29280 9.85346e-18
7276.33290 9.84189e-18
7279.37300 9.71808e-18
7282.41310 9.75859e-18
7285.45320 9.68292e-18
7288.49330 9.83560e-18
7291.54350 9.98507e-18
7294.58360 1.00341e-17
7297.62370 9.63429e-18
7300.66380 9.16524e-18
7303.70390 9.43678e-18
7306.74400 9.94703e-18
7309.78410 9.94572e-18
7312.82420 9.99525e-18
7315.87440 1.00051e-17
7318.91450 9.89218e-18
7321.95460 9.98979e-18
7324.99470 9.58381e-18
7328.03480 9.38383e-18
7331.07490 9.40800e-18
7334.11500 9.52033e-18
7337.16520 9.42013e-18
7340.20530 9.17708e-18
7343.24540 9.23396e-18
7346.28550 9.08886e-18
7349.32560 9.20914e-18
7352.36570 9.45754e-18
7355.40580 9.34617e-18
7358.44590 9.50676e-18
7361.49610 9.62842e-18
7364.53620 9.11519e-18
7367.57630 9.15759e-18
7370.61640 9.24744e-18
7373.65650 9.36046e-18
7376.69660 9.25163e-18
7379.73670 9.33838e-18
7382.77680 9.20105e-18
7385.82700 9.16590e-18
7388.86710 9.37743e-18
7391.90720 9.54216e-18
7394.94730 9.57132e-18
7397.98740 9.66026e-18
7401.02750 9.53142e-18
7404.06760 9.34353e-18
7407.10770 9.51110e-18
7410.15790 9.57922e-18
7413.19800 9.11136e-18
7416.23810 9.08498e-18
7419.27820 9.42565e-18
7422.31830 9.36643e-18
7425.35840 9.28182e-18
7428.39850 8.95726e-18
7431.44870 9.29017e-18
7434.48880 8.91201e-18
7437.52890 9.10127e-18
7440.56900 9.05858e-18
7443.60910 9.21317e-18
7446.64920 9.47236e-18
7449.68930 9.43649e-18
7452.72940 9.01212e-18
7455.77960 9.01295e-18
7458.81970 9.46529e-18
7461.85980 8.94119e-18
7464.89990 9.03169e-18
7467.94000 8.98078e-18
7470.98010 9.13408e-18
7474.02020 9.28193e-18
7477.06030 9.07427e-18
7480.11050 9.18972e-18
7483.15060 9.19505e-18
7486.19070 9.24963e-18
7489.23080 9.18850e-18
7492.27090 9.06310e-18
7495.31100 9.04093e-18
7498.35110 9.07079e-18
7501.39120 9.20793e-18
7504.44140 9.09603e-18
7507.48150 9.23709e-18
7510.52160 9.25577e-18
7513.56170 9.38166e-18
7516.60180 9.17465e-18
7519.64190 9.24320e-18
7522.68200 9.26711e-18
7525.73220 9.14285e-18
7528.77230 9.27557e-18
7531.81240 9.42615e-18
7534.85250 9.38051e-18
7537.89260 9.35679e-18
7540.93270 9.19461e-18
7543.97280 9.25635e-18
7547.01290 9.73837e-18
7550.06310 9.73271e-18
7553.10320 9.72706e-18
7556.14330 9.72140e-18
7559.18340 9.71575e-18
7562.22350 9.71010e-18
7565.26360 9.70445e-18
7568.30370 9.69880e-18
7571.34380 9.69315e-18
7574.39400 9.68751e-18
7577.43410 9.68186e-18
7580.47420 9.67621e-18
7583.51430 9.67057e-18
7586.55440 9.66492e-18
7589.59450 9.65928e-18
7592.63460 9.65364e-18
7595.68480 9.64799e-18
7598.72490 9.64235e-18
7601.76500 9.63671e-18
7604.80510 9.63107e-18
7607.84520 9.62544e-18
7610.88530 9.61980e-18
7613.92540 9.61416e-18
7616.96550 9.60853e-18
7620.01570 9.60289e-18
7623.05580 9.59726e-18
7626.09590 9.59162e-18
7629.13600 9.58599e-18
7632.17610 9.58036e-18
7635.21620 9.57473e-18
7638.25630 9.56910e-18
7641.30650 9.56347e-18
7644.34660 9.55785e-18
7647.38670 9.55222e-18
7650.42680 9.54659e-18
7653.46690 9.54097e-18
7656.50700 9.53534e-18
7659.54710 9.52972e-18
7662.58720 9.52410e-18
7665.62730 9.51848e-18
7668.67750 9.51286e-18
7671.71760 9.50724e-18
7674.75770 9.50162e-18
7677.79780 9.49600e-18
7680.83790 9.49039e-18
7683.87800 9.51936e-18
7686.91810 9.40496e-18
7689.96830 9.31056e-18
7693.00840 9.58080e-18
7696.04850 9.39600e-18
7699.08860 9.18680e-18
7702.12870 9.27295e-18
7705.16880 9.29664e-18
7708.20890 9.35881e-18
7711.24900 9.04602e-18
7714.29920 9.09659e-18
7717.33930 9.17238e-18
7720.37940 8.91041e-18
7723.41950 9.08821e-18
7726.45960 8.99584e-18
7729.49970 9.10574e-18
7732.53980 9.15918e-18
7735.59000 9.09712e-18
7738.63010 9.15004e-18
7741.67020 9.03018e-18
7744.71030 9.07889e-18
7747.75040 9.14591e-18
7750.79050 9.24483e-18
7753.83060 9.06253e-18
7756.87070 8.84498e-18
7759.92090 9.03706e-18
7762.96100 9.12895e-18
7766.00110 8.95896e-18
7769.04120 9.17904e-18
7772.08130 8.90580e-18
7775.12140 8.98658e-18
7778.16150 8.71594e-18
7781.20160 8.82669e-18
7784.25180 8.62837e-18
7787.29190 8.87846e-18
7790.33200 9.34719e-18
7793.37210 9.06234e-18
7796.41220 8.97835e-18
7799.45230 9.04780e-18
7802.49240 9.06594e-18
7805.53250 8.85686e-18
7808.58270 8.93498e-18
7811.62280 8.98828e-18
7814.66290 8.91088e-18
7817.70300 9.08324e-18
7820.74310 9.08962e-18
7823.78320 9.16626e-18
7826.82330 8.94589e-18
7829.87350 9.20049e-18
7832.91360 9.79709e-18
7835.95370 9.42530e-18
7838.99380 9.08026e-18
7842.03390 8.96831e-18
7845.07400 8.86582e-18
7848.11410 8.71411e-18
7851.15420 9.13002e-18
7854.20440 9.19337e-18
7857.24450 9.06199e-18
7860.28460 9.02766e-18
7863.32470 9.09147e-18
7866.36480 9.02975e-18
7869.40490 8.95989e-18
7872.44500 8.98284e-18
7875.48510 9.01359e-18
7878.53530 9.00569e-18
7881.57540 9.09129e-18
7884.61550 9.37585e-18
7887.65560 8.99275e-18
7890.69570 9.31208e-18
7893.73580 9.46929e-18
7896.77590 9.39712e-18
7899.81600 9.19643e-18
7902.86620 9.12850e-18
7905.90630 9.27618e-18
7908.94640 9.08148e-18
7911.98650 9.31039e-18
7915.02660 9.42802e-18
7918.06670 9.41449e-18
7921.10680 9.62110e-18
7924.15700 9.38906e-18
7927.19710 9.28291e-18
7930.23720 9.36653e-18
7933.27730 9.59101e-18
7936.31740 9.58579e-18
7939.35750 9.25387e-18
7942.39760 9.44123e-18
7945.43770 9.24693e-18
7948.48790 9.33671e-18
7951.52800 9.06950e-18
7954.56810 9.37456e-18
7957.60820 9.45365e-18
7960.64830 9.34988e-18
7963.68840 9.35574e-18
7966.72850 9.57942e-18
7969.76860 9.69636e-18
7972.81880 9.49781e-18
7975.85890 9.23933e-18
7978.89900 9.21201e-18
7981.93910 9.57009e-18
7984.97920 9.35280e-18
7988.01930 9.40562e-18
7991.05940 9.79846e-18
7994.10960 9.54704e-18
7997.14970 9.57828e-18
8000.18980 9.56594e-18
8003.22990 9.50987e-18
8006.27000 9.73695e-18
8009.31010 9.53374e-18
8012.35020 9.57568e-18
8015.39030 9.75626e-18
8018.44050 9.65628e-18
8021.48060 9.43684e-18
8024.52070 9.23249e-18
8027.56080 9.70974e-18
8030.60090 1.00306e-17
8033.64100 9.54463e-18
8036.68110 9.59049e-18
8039.72120 9.71650e-18
8042.77140 1.00012e-17
8045.81150 1.00335e-17
8048.85160 9.96797e-18
8051.89170 1.00017e-17
8054.93180 1.00171e-17
8057.97190 9.72687e-18
8061.01200 9.60567e-18
8064.05210 9.76416e-18
8067.10230 9.78667e-18
8070.14240 1.01328e-17
8073.18250 1.00522e-17
8076.22260 9.76649e-18
8079.26270 1.01324e-17
8082.30280 9.95582e-18
8085.34290 1.00415e-17
8088.39310 1.02131e-17
8091.43320 1.00455e-17
8094.47330 1.01854e-17
8097.51340 9.69884e-18
8100.55350 1.02203e-17
8103.59360 1.01274e-17
8106.63370 9.70642e-18
8109.67380 9.90820e-18
8112.72400 1.00957e-17
8115.76410 1.00083e-17
8118.80420 9.91569e-18
8121.84430 9.98548e-18
8124.88440 1.00746e-17
8127.92450 1.00110e-17
8130.96460 9.73488e-18
8134.00470 1.00525e-17
8137.05490 9.79274e-18
8140.09500 9.88214e-18
8143.13510 1.01550e-17
8146.17520 9.73163e-18
8149.21530 1.00874e-17
8152.25540 1.01602e-17
8155.29550 9.82333e-18
8158.34570 9.82132e-18
8161.38580 9.81874e-18
8164.42590 1.04535e-17
8167.46600 1.04041e-17
8170.50610 1.02708e-17
8173.54620 1.02447e-17
8176.58630 9.51648e-18
8179.62640 9.97713e-18
8182.67660 1.04855e-17
8185.71670 9.87901e-18
8188.75680 9.83700e-18
8191.79690 1.02457e-17
8194.83700 1.01925e-17
8197.87710 1.02813e-17
8200.91720 1.02349e-17
8203.95730 1.01757e-17
8207.00750 1.00505e-17
8210.04760 9.95917e-18
8213.08770 1.00641e-17
8216.12780 1.00663e-17
8219.16790 1.03501e-17
8222.20800 9.98534e-18
8225.24810 9.99200e-18
8228.28820 1.04300e-17
8231.33840 1.12431e-17
8234.37850 1.09193e-17
8237.41860 1.05274e-17
8240.45870 1.00884e-17
8243.49880 1.01387e-17
8246.53890 9.89974e-18
8249.57900 9.76606e-18
8252.62920 9.83526e-18
8255.66930 1.00160e-17
8258.70940 1.05026e-17
8261.74950 9.99935e-18
8264.78960 1.01702e-17
8267.82970 1.02795e-17
8270.86980 9.89161e-18
8273.90990 1.03531e-17
8276.96010 1.05640e-17
8280.00020 1.01437e-17
8283.04030 9.89146e-18
8286.08040 9.92735e-18
8289.12050 9.94385e-18
8292.16060 1.01624e-17
8295.20070 1.02018e-17
8298.24080 9.82800e-18
8301.29100 9.49262e-18
8304.33110 9.97624e-18
8307.37120 1.00656e-17
8310.41130 9.76902e-18
8313.45140 9.81489e-18
8316.49150 1.00454e-17
8319.53160 1.00207e-17
8322.58180 1.02204e-17
8325.62190 9.87021e-18
8328.66200 9.70704e-18
8331.70210 9.54709e-18
8334.74220 9.44680e-18
8337.78230 9.85096e-18
8340.82240 9.81620e-18
8343.86250 9.85714e-18
8346.91270 9.76557e-18
8349.95280 9.91120e-18
8352.99290 9.66795e-18
8356.03300 9.84014e-18
8359.07310 1.00260e-17
8362.11320 9.52884e-18
8365.15330 9.33143e-18
8368.19340 9.42778e-18
8371.24360 9.80275e-18
8374.28370 9.50634e-18
8377.32380 9.51559e-18
8380.36390 9.75854e-18
8383.40400 9.48732e-18
8386.44410 9.29317e-18
8389.48420 9.47842e-18
8392.52430 9.76229e-18
8395.57450 9.67221e-18
8398.61460 9.60120e-18
8401.65470 9.09925e-18
8404.69480 9.40528e-18
8407.73490 9.33352e-18
8410.77500 9.13822e-18
8413.81510 9.30019e-18
8416.86530 9.06645e-18
8419.90540 9.18459e-18
8422.94550 9.22676e-18
8425.98560 9.32327e-18
8429.02570 9.42612e-18
8432.06580 9.34938e-18
8435.10590 9.25881e-18
8438.14600 9.10209e-18
8441.19620 9.05514e-18
8444.23630 9.05602e-18
8447.27640 9.22230e-18
8450.31650 9.15298e-18
8453.35660 9.34147e-18
8456.39670 9.01302e-18
8459.43680 8.73023e-18
8462.47690 8.98624e-18
8465.52710 8.99213e-18
8468.56720 9.00030e-18
8471.60730 9.24152e-18
8474.64740 8.98125e-18
8477.68750 8.66506e-18
8480.72760 9.23284e-18
8483.76770 8.86143e-18
8486.81790 9.06628e-18
8489.85800 8.97933e-18
8492.89810 8.42909e-18
8495.93820 8.63251e-18
8498.97830 8.73531e-18
8502.01840 8.49246e-18
8505.05850 8.79615e-18
8508.09860 8.60133e-18
8511.14880 9.05114e-18
8514.18890 8.86389e-18
8517.22900 8.82306e-18
8520.26910 8.83945e-18
8523.30920 8.72379e-18
8526.34930 8.76977e-18
8529.38940 8.98594e-18
8532.43960 8.95598e-18
8535.47970 8.85600e-18
8538.51980 8.97656e-18
8541.55990 8.95468e-18
8544.60000 8.92770e-18
8547.64010 8.84923e-18
8550.68020 8.82189e-18
8553.72030 8.77858e-18
8556.76040 8.63399e-18
8559.81060 8.57282e-18
8562.85070 8.96739e-18
8565.89080 8.82913e-18
8568.93090 8.54067e-18
8571.97100 8.95371e-18
8575.01110 8.78604e-18
8578.05120 8.76883e-18
8581.10140 8.63498e-18
8584.14150 8.65394e-18
8587.18160 8.61252e-18
8590.22170 8.83045e-18
8593.26180 8.89130e-18
8596.30190 8.69933e-18
8599.34200 8.52448e-18
8602.38210 8.76508e-18
8605.43230 9.21664e-18
8608.47240 8.70294e-18
8611.51250 9.15059e-18
8614.55260 8.94373e-18
8617.59270 8.94238e-18
8620.63280 8.45134e-18
8623.67290 8.69984e-18
8626.71300 8.71539e-18
8629.76320 8.60920e-18
8632.80330 8.91682e-18
8635.84340 8.80345e-18
8638.88350 8.59026e-18
8641.92360 8.60983e-18
8644.96370 8.51507e-18
8648.00380 8.58203e-18
8651.04390 8.64319e-18
8654.09410 8.80106e-18
8657.13420 8.97662e-18
8660.17430 8.90669e-18
8663.21440 8.59894e-18
8666.25450 9.03577e-18
8669.29460 9.09754e-18
8672.33470 8.89439e-18
8675.38490 8.59950e-18
8678.42500 8.32505e-18
8681.46510 9.13085e-18
8684.50520 9.17968e-18
8687.54530 9.29498e-18
8690.58540 8.98881e-18
8693.62550 8.52500e-18
8696.66560 8.55639e-18
8699.71580 8.51938e-18
8702.75590 8.53972e-18
8705.79600 8.96463e-18
8708.83610 8.68315e-18
8711.87620 8.59281e-18
8714.91630 8.33994e-18
8717.95640 8.41103e-18
8721.00660 8.48784e-18
8724.04670 8.42051e-18
8727.08680 8.45387e-18
8730.12690 8.73847e-18
8733.16700 8.66974e-18
8736.20710 8.55967e-18
8739.24720 8.46888e-18
8742.28730 8.80219e-18
8745.33750 8.64717e-18
8748.37760 8.24164e-18
8751.41770 8.57725e-18
8754.45780 8.90940e-18
8757.49790 8.76604e-18
8760.53800 8.74523e-18
8763.57810 8.51664e-18
8766.62830 8.76571e-18
8769.66840 8.75956e-18
8772.70850 8.75276e-18
8775.74860 8.76881e-18
8778.78870 8.78458e-18
8781.82880 8.04852e-18
8784.86890 8.00478e-18
8787.90900 8.58543e-18
8790.95920 8.50769e-18
8793.99930 8.06397e-18
8797.03940 8.67712e-18
8800.07950 8.63797e-18
8803.11960 8.52509e-18
8806.15970 8.10431e-18
8809.19980 7.98304e-18
8812.23990 8.43677e-18
8815.28000 8.68038e-18
8818.33020 8.40271e-18
8821.37030 8.21930e-18
8824.41040 8.50742e-18
8827.45050 8.75712e-18
8830.49060 8.27141e-18
8833.53070 8.06118e-18
8836.57080 8.61686e-18
8839.62100 8.96352e-18
8842.66110 8.92184e-18
8845.70120 8.45506e-18
8848.74130 8.05943e-18
8851.78140 7.96201e-18
8854.82150 8.02468e-18
8857.86160 7.73559e-18
8860.90170 8.21744e-18
8863.95190 8.36255e-18
8866.99200 7.92438e-18
8870.03210 8.31710e-18
8873.07220 8.21233e-18
8876.11230 8.32494e-18
8879.15240 8.05711e-18
8882.19250 8.47276e-18
8885.24270 8.40748e-18
8888.28280 7.98497e-18
8891.32290 8.11144e-18
8894.36300 8.37959e-18
8897.40310 8.33961e-18
8900.44320 8.10783e-18
8903.48330 8.36770e-18
8906.52340 8.67535e-18
8909.57360 8.06254e-18
8912.61370 8.07985e-18
8915.65380 8.20886e-18
8918.69390 8.39555e-18
8921.73400 8.54496e-18
8924.77410 8.50361e-18
8927.81420 7.99518e-18
8930.86440 8.32219e-18
8933.90450 8.97681e-18
8936.94460 7.95732e-18
8939.98470 7.65256e-18
8943.02480 8.06833e-18
8946.06490 8.65921e-18
8949.10500 8.31077e-18
8952.14510 8.05930e-18
8955.19530 8.66935e-18
8958.23540 7.91651e-18
8961.27550 7.78709e-18
8964.31560 8.06668e-18
8967.35570 8.53216e-18
8970.39580 8.24403e-18
8973.43590 7.57799e-18
8976.47600 7.81683e-18
8979.52620 7.89368e-18
8982.56630 8.14590e-18
8985.60640 7.82188e-18
8988.64650 6.90683e-18
8991.68660 7.00308e-18
8994.72670 8.46832e-18
8997.76680 8.48311e-18
9000.80690 7.85653e-18
9003.85710 7.86327e-18
9006.89720 7.84006e-18
9009.93730 7.70669e-18
9012.97740 7.41652e-18
9016.01750 7.62346e-18
9019.05760 7.76160e-18
9022.09770 7.75569e-18
9025.14790 8.00143e-18
9028.18800 7.87156e-18
9031.22810 8.04333e-18
9034.26820 7.62338e-18
9037.30830 7.86572e-18
9040.34840 7.75827e-18
9043.38850 7.61150e-18
9046.42860 7.37724e-18
9049.47880 7.33400e-18
9052.51890 7.46199e-18
9055.55900 7.44847e-18
9058.59910 7.55744e-18
9061.63920 7.34606e-18
9064.67930 7.00542e-18
9067.71940 7.17473e-18
9070.75950 7.34140e-18
9073.80970 7.46075e-18
9076.84980 7.37997e-18
9079.88990 7.55307e-18
9082.93000 7.28375e-18
9085.97010 7.12901e-18
9089.01020 7.43892e-18
9092.05030 7.06370e-18
9095.09040 7.15664e-18
9098.14060 7.39430e-18
9101.18070 7.74078e-18
9104.22080 7.38059e-18
9107.26090 7.57296e-18
9110.30100 8.01346e-18
9113.34110 7.34214e-18
9116.38120 7.14648e-18
9119.43140 6.99034e-18
9122.47150 7.14523e-18
9125.51160 6.89579e-18
9128.55170 7.32239e-18
9131.59180 7.58263e-18
9134.63190 7.07836e-18
9137.67200 7.14211e-18
9140.71210 7.17397e-18
9143.76230 7.16776e-18
9146.80240 7.17320e-18
9149.84250 7.17106e-18
9152.88260 7.49007e-18
9155.92270 8.82810e-18
9158.96280 1.17644e-17
9162.00290 1.42563e-17
9165.04300 1.25172e-17
9168.09320 8.89186e-18
9171.13330 7.31297e-18
9174.17340 7.20892e-18
9177.21350 7.32056e-18
9180.25360 7.13088e-18
9183.29370 6.52453e-18
9186.33380 6.90939e-18
9189.38400 6.80199e-18
9192.42410 7.11004e-18
9195.46420 7.30758e-18
9198.50430 6.83402e-18
9201.54440 6.59848e-18
9204.58450 6.86435e-18
9207.62460 7.14568e-18
9210.66470 6.44309e-18
9213.71490 6.58805e-18
9216.75500 7.23426e-18
9219.79510 7.36166e-18
9222.83520 7.04146e-18
9225.87530 7.00476e-18
9228.91540 6.80097e-18
9231.95550 7.22491e-18
9234.99560 6.78796e-18
9236.00272 6.78796e-18
9237.99956 6.78562e-18
9239.99641 6.53672e-18
9242.00345 6.14809e-18
9244.00030 6.05621e-18
9245.99714 6.28136e-18
9248.00418 6.22098e-18
9250.00103 5.99408e-18
9251.99788 5.75728e-18
9254.00491 5.50414e-18
9256.00176 5.26598e-18
9257.99861 5.20858e-18
9259.99546 5.38245e-18
9262.00249 5.30024e-18
9263.99934 4.97623e-18
9265.99619 4.80310e-18
9268.00322 4.84043e-18
9270.00007 4.95480e-18
9271.99692 5.03115e-18
9274.00396 5.14692e-18
9276.00080 5.12304e-18
9277.99765 4.85729e-18
9279.99450 4.83645e-18
9282.00154 5.11073e-18
9283.99838 5.43940e-18
9285.99523 5.62773e-18
9288.00227 5.75665e-18
9289.99912 5.97881e-18
9291.99596 6.48321e-18
9294.00300 6.50385e-18
9295.99985 5.70514e-18
9297.99670 5.29322e-18
9300.00373 6.13757e-18
9302.00058 7.70301e-18
9303.99743 8.28831e-18
9306.00446 8.99024e-18
9308.00131 8.16389e-18
9309.99816 4.92845e-18
9312.00520 2.80659e-18
9314.00204 3.27574e-18
9315.99889 4.92234e-18
9317.99574 5.40052e-18
9320.00278 5.32109e-18
9321.99962 5.71994e-18
9323.99647 6.36383e-18
9326.00351 7.02743e-18
9328.00036 7.89400e-18
9329.99720 8.62263e-18
9332.00424 8.46977e-18
9334.00109 7.48148e-18
9335.99794 6.98224e-18
9337.99478 6.44282e-18
9340.00182 6.20034e-18
9341.99867 6.48235e-18
9343.99552 6.74622e-18
9346.00255 6.34382e-18
9347.99940 5.44029e-18
9349.99625 5.16495e-18
9352.00328 5.25918e-18
9354.00013 5.36974e-18
9355.99698 5.54131e-18
9358.00402 5.80768e-18
9360.00086 6.22680e-18
9361.99771 6.77453e-18
9364.00475 7.06376e-18
9366.00160 7.20530e-18
9367.99844 7.27428e-18
9369.99529 7.07396e-18
9372.00233 7.06768e-18
9373.99918 7.60659e-18
9375.99602 8.37336e-18
9378.00306 8.39739e-18
9379.99991 7.93708e-18
9381.99676 7.32938e-18
9384.00379 5.97179e-18
9386.00064 5.25659e-18
9387.99749 5.76334e-18
9390.00452 6.68877e-18
9392.00137 6.68517e-18
9393.99822 6.08032e-18
9395.99507 5.77736e-18
9398.00210 5.38047e-18
9399.99895 5.23165e-18
9401.99580 5.52014e-18
9404.00284 5.83821e-18
9405.99968 5.64747e-18
9407.99653 5.08223e-18
9410.00357 4.80150e-18
9412.00042 4.58543e-18
9413.99726 4.45634e-18
9416.00430 4.37311e-18
9418.00115 4.42291e-18
9419.99800 4.73639e-18
9421.99484 5.28149e-18
9424.00188 5.50654e-18
9425.99873 5.47834e-18
9427.99558 5.58201e-18
9430.00261 5.64457e-18
9431.99946 5.89614e-18
9433.99631 6.43556e-18
9436.00334 7.21071e-18
9438.00019 8.33306e-18
9439.99704 1.07985e-17
9442.00408 1.11421e-17
9444.00092 9.68098e-18
9445.99777 8.15760e-18
9448.00481 6.79527e-18
9450.00166 5.54787e-18
9451.99850 5.33355e-18
9453.99535 6.40858e-18
9456.00239 6.36244e-18
9457.99924 5.69065e-18
9459.99608 5.07247e-18
9462.00312 4.49705e-18
9463.99997 3.98839e-18
9465.99682 3.71174e-18
9468.00385 3.49956e-18
9470.00070 3.90328e-18
9471.99755 5.16811e-18
9474.00458 6.02736e-18
9476.00143 6.65385e-18
9477.99828 6.93613e-18
9479.99513 6.52656e-18
9482.00216 5.44908e-18
9483.99901 5.11725e-18
9485.99586 5.30781e-18
9488.00290 5.24604e-18
9489.99974 4.96284e-18
9491.99659 4.72178e-18
9494.00363 4.61719e-18
9496.00048 4.59963e-18
9497.99732 4.96673e-18
9500.00436 5.82976e-18
9502.00121 6.48068e-18
9503.99806 7.32941e-18
9505.99490 7.76748e-18
9508.00194 7.49442e-18
9509.99879 6.76904e-18
9511.99564 6.06392e-18
9514.00267 4.86243e-18
9515.99952 4.39416e-18
9517.99637 4.41087e-18
9520.00340 4.57858e-18
9522.00025 4.89622e-18
9523.99710 5.33822e-18
9526.00414 5.77906e-18
9528.00098 6.48992e-18
9529.99783 6.42253e-18
9532.00487 5.42941e-18
9534.00172 4.91128e-18
9535.99856 5.12403e-18
9537.99541 5.37500e-18
9540.00245 4.81935e-18
9541.99930 3.50145e-18
9543.99614 3.87827e-18
9546.00318 5.99118e-18
9548.00003 7.23499e-18
9549.99688 7.99825e-18
9552.00391 8.26920e-18
9554.00076 7.82801e-18
9555.99761 6.75455e-18
9557.99446 5.79570e-18
9560.00149 3.91303e-18
9561.99834 3.64202e-18
9563.99519 5.06911e-18
9566.00222 6.53162e-18
9567.99907 7.47282e-18
9569.99592 8.18035e-18
9572.00296 7.91401e-18
9573.99980 6.35519e-18
9575.99665 5.47726e-18
9578.00369 4.69723e-18
9580.00054 4.05258e-18
9581.99738 3.44685e-18
9584.00442 3.03575e-18
9586.00127 3.29360e-18
9587.99812 4.37831e-18
9590.00515 4.86810e-18
9592.00200 5.14124e-18
9593.99885 5.36210e-18
9595.99570 5.51583e-18
9598.00273 5.62620e-18
9599.99958 5.76126e-18
9601.99643 5.89338e-18
9604.00346 6.01680e-18
9606.00031 6.29094e-18
9607.99716 6.23654e-18
9610.00420 5.84976e-18
9612.00104 5.25834e-18
9613.99789 4.36211e-18
9615.99474 3.05666e-18
9618.00178 3.24167e-18
9619.99862 5.40081e-18
9621.99547 5.97542e-18
9624.00251 5.17396e-18
9625.99936 4.17823e-18
9627.99620 3.39847e-18
9630.00324 2.63052e-18
9632.00009 2.89606e-18
9633.99694 4.50166e-18
9636.00397 5.23813e-18
9638.00082 5.74632e-18
9639.99767 5.86655e-18
9642.00470 5.30573e-18
9644.00155 4.42422e-18
9645.99840 4.37522e-18
9647.99525 5.01998e-18
9650.00228 5.25886e-18
9651.99913 5.52146e-18
9653.99598 5.52898e-18
9656.00302 5.15790e-18
9657.99986 4.61483e-18
9659.99671 4.18336e-18
9662.00375 3.60601e-18
9664.00060 3.60317e-18
9665.99744 4.25861e-18
9668.00448 4.64879e-18
9670.00133 4.77926e-18
9671.99818 4.78250e-18
9673.99502 4.69258e-18
9676.00206 4.47497e-18
9677.99891 4.29475e-18
9679.99576 3.87159e-18
9682.00279 3.91216e-18
9683.99964 4.67651e-18
9685.99649 5.27828e-18
9688.00352 5.02342e-18
9690.00037 4.24577e-18
9691.99722 3.92305e-18
9694.00426 3.73139e-18
9696.00110 3.62853e-18
9697.99795 3.66263e-18
9699.99480 3.73507e-18
9702.00184 3.78448e-18
9703.99868 3.86079e-18
9705.99553 4.09128e-18
9708.00257 4.56611e-18
9709.99942 4.81786e-18
9711.99626 4.96897e-18
9714.00330 5.06345e-18
9716.00015 5.06119e-18
9717.99700 5.03264e-18
9720.00403 5.18271e-18
9722.00088 5.56057e-18
9723.99773 5.59894e-18
9726.00476 5.50916e-18
9728.00161 5.18471e-18
9729.99846 4.42706e-18
9731.99531 3.63844e-18
9734.00234 3.35608e-18
9735.99919 3.34066e-18
9737.99604 3.65783e-18
9740.00308 4.54255e-18
9741.99992 5.20959e-18
9743.99677 5.83306e-18
9746.00381 6.24420e-18
9748.00066 6.21154e-18
9749.99750 5.82122e-18
9751.99435 5.47135e-18
9754.00139 4.86041e-18
9755.99824 4.52424e-18
9757.99508 4.29268e-18
9760.00212 4.31449e-18
9761.99897 4.85107e-18
9763.99582 5.70571e-18
9766.00285 5.72822e-18
9767.99970 5.02765e-18
9769.99655 4.60601e-18
9772.00358 3.90936e-18
9774.00043 3.68918e-18
9775.99728 4.44428e-18
9778.00432 5.58756e-18
9780.00116 5.72549e-18
9781.99801 5.02386e-18
9784.00505 4.90194e-18
9786.00190 5.20793e-18
9787.99874 5.14679e-18
9789.99559 4.46083e-18
9792.00263 3.61304e-18
9793.99948 3.17505e-18
9795.99632 2.76748e-18
9798.00336 3.17253e-18
9800.00021 4.96080e-18
9801.99706 5.67308e-18
9804.00409 5.08989e-18
9806.00094 4.16555e-18
9807.99779 3.58286e-18
9809.99464 2.94582e-18
9812.00167 3.09167e-18
9813.99852 4.42317e-18
9815.99537 4.80118e-18
9818.00240 4.33464e-18
9819.99925 3.66416e-18
9821.99610 2.96277e-18
9824.00314 2.13495e-18
9825.99998 2.35238e-18
9827.99683 3.94529e-18
9830.00387 4.49214e-18
9832.00072 4.41396e-18
9833.99756 4.17557e-18
9836.00460 3.79498e-18
9838.00145 3.32908e-18
9839.99830 3.43858e-18
9841.99514 4.16214e-18
9844.00218 4.49719e-18
9845.99903 4.72311e-18
9847.99588 4.89434e-18
9850.00291 5.05189e-18
9851.99976 5.13126e-18
9853.99661 4.98916e-18
9856.00364 4.54320e-18
9858.00049 4.43912e-18
9859.99734 4.58755e-18
9862.00438 4.66118e-18
9864.00122 4.72642e-18
9865.99807 4.68142e-18
9868.00511 4.31105e-18
9870.00196 3.62842e-18
9871.99880 3.21680e-18
9873.99565 2.68814e-18
9876.00269 2.65728e-18
9877.99954 3.36739e-18
9879.99638 4.05416e-18
9882.00342 4.10564e-18
9884.00027 3.80003e-18
9885.99712 3.64718e-18
9888.00415 3.29278e-18
9890.00100 3.32048e-18
9891.99785 4.02077e-18
9893.99470 4.33419e-18
9896.00173 3.51473e-18
9897.99858 2.10965e-18
9899.99543 1.82531e-18
9902.00246 2.35494e-18
9903.99931 2.66767e-18
9905.99616 3.20707e-18
9908.00320 3.56472e-18
9910.00004 3.56993e-18
9911.99689 3.41921e-18
9914.00393 3.43850e-18
9916.00078 3.42853e-18
9917.99762 3.69279e-18
9920.00466 4.48311e-18
9922.00151 4.80613e-18
9923.99836 4.44506e-18
9925.99520 3.83107e-18
9928.00224 3.37997e-18
9929.99909 2.72760e-18
9931.99594 2.98611e-18
9934.00297 4.30681e-18
9935.99982 5.15717e-18
9937.99667 5.74615e-18
9940.00370 5.97126e-18
9942.00055 5.40328e-18
9943.99740 4.04691e-18
9946.00444 4.17822e-18
9948.00128 5.95243e-18
9949.99813 6.47080e-18
9951.99498 5.86781e-18
9954.00202 5.15277e-18
9955.99886 4.84168e-18
9957.99571 4.65096e-18
9960.00275 4.42107e-18
9961.99960 3.80329e-18
9963.99644 4.13545e-18
9966.00348 6.17728e-18
9968.00033 7.00305e-18
9969.99718 5.01364e-18
9972.00421 1.77000e-18
9974.00106 7.64494e-19
9975.99791 1.15201e-18
9978.00494 1.24118e-18
9980.00179 1.62347e-18
9981.99864 2.06316e-18
9983.99549 2.56080e-18
9986.00252 3.10065e-18
9987.99937 3.59048e-18
9989.99622 4.11319e-18
9992.00326 4.44328e-18
9994.00010 4.66189e-18
9995.99695 4.73749e-18
9998.00399 4.57519e-18
10000.00084 4.37831e-18
