# wavelength flux
3389.99738 6.04682e-18
3395.00488 6.59971e-18
3400.00236 6.36426e-18
3404.99985 6.74561e-18
3409.99734 6.58724e-18
3415.00484 7.29104e-18
3420.00232 7.16849e-18
3424.99980 7.32498e-18
3429.99729 7.21795e-18
3435.00479 7.11227e-18
3440.00228 7.27383e-18
3444.99976 7.40396e-18
3449.99725 7.42438e-18
3455.00475 7.33203e-18
3460.00223 7.66730e-18
3464.99971 7.57279e-18
3469.99720 7.63309e-18
3475.00470 7.40191e-18
3480.00219 7.64912e-18
3484.99967 7.79094e-18
3489.99716 7.62106e-18
3495.00466 7.75718e-18
3500.00214 7.58239e-18
3504.99963 7.53349e-18
3509.99711 7.53467e-18
3515.00461 7.71105e-18
3520.00210 7.33057e-18
3524.99958 7.44482e-18
3529.99707 7.19303e-18
3535.00457 7.17757e-18
3540.00205 7.23766e-18
3544.99954 7.04441e-18
3549.99702 7.10529e-18
3555.00452 6.88189e-18
3560.00201 7.16373e-18
3564.99949 6.96075e-18
3569.99698 6.91364e-18
3575.00448 7.08887e-18
3580.00196 7.04201e-18
3584.99945 6.87995e-18
3589.99693 7.02883e-18
3595.00443 6.91143e-18
3600.00192 7.02153e-18
3604.99940 6.84917e-18
3609.99689 7.17638e-18
3615.00439 7.12438e-18
3620.00187 7.42591e-18
3624.99936 7.78524e-18
3629.99684 8.08101e-18
3635.00434 8.31025e-18
3640.00183 8.63429e-18
3644.99931 8.82651e-18
3649.99680 9.48215e-18
3655.00430 9.81801e-18
3660.00178 9.92844e-18
3664.99927 1.04865e-17
3669.99675 1.10231e-17
3675.00425 1.14297e-17
3680.00173 1.16243e-17
3684.99922 1.19055e-17
3689.99671 1.16878e-17
3695.00421 1.15885e-17
3700.00169 1.16098e-17
3704.99917 1.18081e-17
3709.99666 1.17748e-17
3715.00416 1.13022e-17
3720.00164 1.05840e-17
3724.99913 1.03294e-17
3729.99662 1.01617e-17
3735.00412 9.67527e-18
3740.00160 9.11292e-18
3744.99908 8.80305e-18
3749.99657 8.31968e-18
3755.00407 8.08287e-18
3760.00156 7.77403e-18
3764.99904 7.64721e-18
3769.99653 7.24918e-18
3775.00403 7.06185e-18
3780.00151 7.12330e-18
3784.99899 6.99892e-18
3789.99648 7.14389e-18
3795.00398 7.10921e-18
3800.00147 7.07050e-18
3804.99895 7.23598e-18
3809.99644 7.38829e-18
3815.00394 7.74774e-18
3820.00142 8.07792e-18
3824.99891 8.54809e-18
3829.99639 9.22886e-18
3835.00389 9.80294e-18
3840.00138 1.03848e-17
3844.99886 1.09301e-17
3849.99635 1.14725e-17
3855.00385 1.20557e-17
3860.00133 1.26070e-17
3864.99882 1.32077e-17
3869.99630 1.38886e-17
3875.00380 1.45234e-17
3880.00129 1.49157e-17
3884.99877 1.52910e-17
3889.99626 1.60724e-17
3895.00376 1.65141e-17
3900.00124 1.71834e-17
3904.99873 1.76919e-17
3909.99621 1.78410e-17
3915.00371 1.80529e-17
3920.00120 1.82955e-17
3924.99868 1.84360e-17
3929.99617 1.80282e-17
3935.00367 1.78424e-17
3940.00115 1.75715e-17
3944.99864 1.75374e-17
3949.99612 1.75144e-17
3955.00362 1.77296e-17
3960.00111 1.79192e-17
3964.99859 1.78407e-17
3969.99608 1.76065e-17
3975.00358 1.75932e-17
3980.00106 1.75963e-17
3984.99855 1.78543e-17
3989.99603 1.80830e-17
3995.00353 1.81940e-17
4000.00102 1.79975e-17
4004.99850 1.81459e-17
4009.99599 1.77611e-17
4015.00349 1.75070e-17
4020.00097 1.72956e-17
4024.99845 1.69667e-17
4029.99594 1.67495e-17
4035.00344 1.63743e-17
4040.00092 1.61721e-17
4044.99841 1.59440e-17
4049.99590 1.57937e-17
4055.00340 1.57422e-17
4060.00088 1.53463e-17
4064.99836 1.52184e-17
4069.99585 1.49799e-17
4075.00335 1.44306e-17
4080.00084 1.39278e-17
4084.99832 1.39742e-17
4089.99581 1.34888e-17
4095.00331 1.32786e-17
4100.00079 1.29517e-17
4104.99828 1.28793e-17
4109.99576 1.24864e-17
4115.00326 1.22127e-17
4120.00075 1.20298e-17
4124.99823 1.19070e-17
4129.99572 1.15045e-17
4135.00322 1.13451e-17
4140.00070 1.10408e-17
4144.99819 1.08885e-17
4149.99567 1.06887e-17
4155.00317 1.06784e-17
4160.00066 1.05991e-17
4164.99814 1.05722e-17
4169.99563 1.06545e-17
4175.00313 1.06961e-17
4180.00061 1.09297e-17
4184.99809 1.11306e-17
4189.99558 1.14397e-17
4195.00308 1.17178e-17
4200.00057 1.17149e-17
4204.99805 1.16823e-17
4209.99554 1.20406e-17
4215.00303 1.21174e-17
4220.00052 1.24529e-17
4224.99801 1.26260e-17
4229.99549 1.25767e-17
4235.00299 1.29554e-17
4240.00047 1.32550e-17
4244.99796 1.36614e-17
4249.99545 1.36404e-17
4255.00295 1.38183e-17
4260.00043 1.39794e-17
4264.99791 1.44255e-17
4269.99540 1.46613e-17
4275.00290 1.49156e-17
4280.00039 1.50048e-17
4284.99787 1.52031e-17
4289.99536 1.52724e-17
4295.00285 1.51357e-17
4300.00034 1.52963e-17
4304.99783 1.50982e-17
4309.99531 1.50302e-17
4315.00281 1.47992e-17
4320.00029 1.47268e-17
4324.99778 1.44953e-17
4329.99527 1.41985e-17
4335.00277 1.38850e-17
4340.00025 1.37176e-17
4344.99773 1.37816e-17
4349.99522 1.32323e-17
4355.00272 1.28346e-17
4360.00021 1.26713e-17
4364.99769 1.24409e-17
4369.99518 1.22918e-17
4375.00267 1.23259e-17
4380.00016 1.20389e-17
4384.99765 1.21976e-17
4389.99513 1.21649e-17
4395.00263 1.22774e-17
4400.00011 1.22171e-17
4404.99760 1.24963e-17
4410.00510 1.26242e-17
4415.00259 1.27656e-17
4420.00007 1.30946e-17
4424.99755 1.34225e-17
4429.99504 1.37297e-17
4435.00254 1.42589e-17
4440.00003 1.48020e-17
4444.99751 1.49756e-17
4449.99500 1.51648e-17
4455.00249 1.55187e-17
4459.99998 1.57941e-17
4464.99747 1.60758e-17
4470.00497 1.65275e-17
4475.00245 1.68966e-17
4479.99993 1.72813e-17
4484.99742 1.77603e-17
4489.99491 1.79993e-17
4495.00241 1.80629e-17
4499.99989 1.83921e-17
4504.99737 1.85176e-17
4510.00488 1.88703e-17
4515.00236 1.92308e-17
4519.99984 1.90136e-17
4524.99733 1.88502e-17
4530.00483 1.87334e-17
4535.00232 1.84759e-17
4539.99980 1.87688e-17
4544.99728 1.86618e-17
4550.00479 1.83751e-17
4555.00227 1.84618e-17
4559.99976 1.81092e-17
4564.99724 1.77152e-17
4570.00474 1.76278e-17
4575.00223 1.74596e-17
4579.99971 1.70630e-17
4584.99719 1.68740e-17
4590.00470 1.65195e-17
4595.00218 1.62383e-17
4599.99967 1.59414e-17
4604.99715 1.57511e-17
4610.00465 1.54450e-17
4615.00214 1.51137e-17
4619.99962 1.49509e-17
4624.99711 1.43754e-17
4630.00461 1.40049e-17
4635.00209 1.36187e-17
4639.99958 1.32165e-17
4644.99706 1.25679e-17
4650.00456 1.24084e-17
4655.00205 1.18854e-17
4659.99953 1.17482e-17
4664.99702 1.16142e-17
4670.00452 1.13125e-17
4675.00200 1.13248e-17
4679.99949 1.13098e-17
4684.99697 1.16444e-17
4690.00447 1.17473e-17
4695.00196 1.20097e-17
4699.99944 1.23762e-17
4704.99693 1.24362e-17
4710.00443 1.28490e-17
4715.00191 1.30459e-17
4719.99940 1.33495e-17
4724.99688 1.34689e-17
4730.00438 1.33450e-17
4735.00187 1.32347e-17
4739.99935 1.35080e-17
4744.99684 1.36714e-17
4750.00434 1.38890e-17
4755.00182 1.41490e-17
4759.99931 1.43728e-17
4764.99679 1.46214e-17
4770.00429 1.48693e-17
4775.00178 1.49006e-17
4779.99926 1.50723e-17
4784.99675 1.52445e-17
4790.00425 1.53236e-17
4795.00173 1.53771e-17
4799.99922 1.53107e-17
4804.99670 1.52409e-17
4810.00420 1.52897e-17
4815.00169 1.52224e-17
4819.99917 1.49496e-17
4824.99666 1.47239e-17
4830.00416 1.45672e-17
4835.00164 1.47264e-17
4839.99913 1.49922e-17
4844.99661 1.50546e-17
4850.00411 1.50561e-17
4855.00159 1.52598e-17
4859.99908 1.54810e-17
4864.99657 1.54653e-17
4870.00407 1.55479e-17
4875.00155 1.57040e-17
4879.99903 1.59818e-17
4884.99652 1.59837e-17
4890.00402 1.60611e-17
4895.00151 1.62181e-17
4899.99899 1.65256e-17
4904.99647 1.64785e-17
4910.00397 1.64678e-17
4915.00146 1.64054e-17
4919.99895 1.63277e-17
4924.99643 1.64069e-17
4930.00393 1.63213e-17
4935.00141 1.62384e-17
4939.99890 1.59485e-17
4944.99639 1.56307e-17
4950.00389 1.51907e-17
4955.00137 1.49192e-17
4959.99885 1.46747e-17
4964.99634 1.42468e-17
4970.00384 1.41609e-17
4975.00133 1.37932e-17
4979.99881 1.35920e-17
4984.99629 1.35216e-17
4990.00379 1.36096e-17
4995.00128 1.34349e-17
4999.99877 1.34849e-17
5004.99625 1.34673e-17
5010.00375 1.33909e-17
5015.00123 1.34711e-17
5019.99872 1.35010e-17
5024.99621 1.35774e-17
5030.00371 1.38690e-17
5035.00119 1.40117e-17
5039.99867 1.39122e-17
5044.99616 1.38943e-17
5050.00366 1.40933e-17
5055.00115 1.42097e-17
5059.99863 1.44169e-17
5064.99611 1.44212e-17
5070.00362 1.45592e-17
5075.00110 1.47438e-17
5079.99859 1.45849e-17
5084.99607 1.45604e-17
5090.00357 1.46419e-17
5095.00106 1.46543e-17
5099.99854 1.48097e-17
5104.99603 1.48013e-17
5110.00353 1.47764e-17
5115.00101 1.45604e-17
5119.99849 1.47914e-17
5124.99598 1.47687e-17
5130.00348 1.46189e-17
5135.00097 1.48079e-17
5139.99845 1.48643e-17
5144.99593 1.49629e-17
5150.00344 1.50191e-17
5155.00092 1.50990e-17
5159.99841 1.52296e-17
5164.99589 1.53686e-17
5170.00339 1.55009e-17
5175.00088 1.57164e-17
5179.99836 1.58365e-17
5184.99584 1.59697e-17
5190.00335 1.62436e-17
5195.00083 1.62341e-17
5199.99832 1.64407e-17
5204.99580 1.66424e-17
5210.00330 1.65283e-17
5215.00079 1.66696e-17
5219.99827 1.68268e-17
5224.99575 1.70162e-17
5230.00326 1.70468e-17
5235.00074 1.68979e-17
5239.99823 1.70556e-17
5244.99571 1.69537e-17
5250.00321 1.68010e-17
5255.00070 1.67403e-17
5259.99818 1.67353e-17
5264.99567 1.67560e-17
5270.00317 1.69150e-17
5275.00065 1.68450e-17
5279.99814 1.67178e-17
5284.99562 1.67348e-17
5290.00312 1.67056e-17
5295.00061 1.64768e-17
5299.99809 1.64266e-17
5304.99558 1.62120e-17
5310.00308 1.62679e-17
5315.00056 1.62350e-17
5319.99805 1.61490e-17
5324.99553 1.59152e-17
5330.00303 1.58339e-17
5335.00052 1.58090e-17
5339.99800 1.58268e-17
5344.99549 1.57725e-17
5350.00299 1.55609e-17
5355.00047 1.54866e-17
5359.99796 1.54710e-17
5364.99544 1.55887e-17
5370.00294 1.55052e-17
5375.00043 1.53887e-17
5379.99791 1.52880e-17
5384.99540 1.52799e-17
5390.00290 1.52060e-17
5395.00038 1.50913e-17
5399.99787 1.50959e-17
5404.99535 1.49828e-17
5410.00285 1.49313e-17
5415.00034 1.48295e-17
5419.99782 1.45900e-17
5424.99531 1.46835e-17
5430.00281 1.45745e-17
5435.00029 1.44256e-17
5439.99778 1.43919e-17
5444.99526 1.41488e-17
5450.00276 1.40747e-17
5455.00025 1.41386e-17
5459.99773 1.40105e-17
5464.99522 1.36869e-17
5470.00272 1.35783e-17
5475.00020 1.33364e-17
5479.99769 1.31850e-17
5484.99517 1.30465e-17
5490.00267 1.31281e-17
5495.00016 1.30218e-17
5499.99764 1.29045e-17
5504.99513 1.29597e-17
5510.00263 1.28362e-17
5515.00011 1.28408e-17
5519.99759 1.26972e-17
5525.00509 1.25539e-17
5530.00258 1.24774e-17
5535.00007 1.24288e-17
5539.99755 1.22913e-17
5544.99503 1.23603e-17
5550.00253 1.24206e-17
5555.00002 1.24979e-17
5559.99751 1.24784e-17
5565.00500 1.24184e-17
5570.00249 1.24389e-17
5574.99997 1.23365e-17
5579.99746 1.21699e-17
5584.99495 1.22272e-17
5590.00245 1.20049e-17
5594.99993 1.20506e-17
5599.99741 1.18170e-17
5604.99490 1.18934e-17
5610.00240 1.18011e-17
5614.99989 1.16119e-17
5619.99737 1.16477e-17
5625.00487 1.16948e-17
5630.00235 1.17105e-17
5634.99984 1.16716e-17
5639.99733 1.16882e-17
5644.99481 1.15793e-17
5650.00231 1.17928e-17
5654.99979 1.17499e-17
5659.99728 1.16463e-17
5665.00478 1.16710e-17
5670.00227 1.16268e-17
5674.99975 1.17372e-17
5679.99723 1.16738e-17
5685.00474 1.17143e-17
5690.00222 1.16388e-17
5694.99971 1.16438e-17
5699.99719 1.16303e-17
5705.00469 1.18546e-17
5710.00218 1.18761e-17
5714.99966 1.18589e-17
5719.99715 1.18023e-17
5725.00465 1.17720e-17
5730.00213 1.18511e-17
5734.99962 1.18220e-17
5739.99710 1.18324e-17
5745.00460 1.17045e-17
5750.00209 1.18496e-17
5754.99957 1.19865e-17
5759.99705 1.20519e-17
5765.00456 1.20694e-17
5770.00204 1.21975e-17
5774.99953 1.21627e-17
5779.99701 1.21728e-17
5785.00451 1.20907e-17
5790.00200 1.23804e-17
5794.99948 1.24039e-17
5799.99697 1.23413e-17
5805.00447 1.24101e-17
5810.00195 1.24510e-17
5814.99944 1.25941e-17
5819.99692 1.24786e-17
5825.00442 1.24338e-17
5830.00191 1.24951e-17
5834.99939 1.24444e-17
5839.99688 1.24855e-17
5845.00438 1.24355e-17
5850.00186 1.23611e-17
5854.99935 1.24298e-17
5859.99683 1.23679e-17
5865.00433 1.23693e-17
5870.00182 1.21778e-17
5874.99930 1.23660e-17
5879.99679 1.22209e-17
5885.00428 1.20802e-17
5890.00177 1.15998e-17
5894.99926 1.17124e-17
5899.99674 1.16670e-17
5905.00424 1.17124e-17
5910.00173 1.18058e-17
5914.99921 1.19392e-17
5919.99670 1.17921e-17
5925.00420 1.17913e-17
5930.00168 1.17453e-17
5934.99917 1.16276e-17
5939.99665 1.15300e-17
5945.00415 1.15878e-17
5950.00164 1.14346e-17
5954.99912 1.15087e-17
5959.99661 1.13100e-17
5965.00410 1.13840e-17
5970.00159 1.13793e-17
5974.99908 1.14022e-17
5979.99656 1.12689e-17
5985.00406 1.12469e-17
5990.00155 1.12181e-17
5994.99903 1.10947e-17
5999.99652 1.09659e-17
6005.00402 1.09698e-17
6010.00150 1.08210e-17
6014.99899 1.07548e-17
6019.99647 1.09647e-17
6025.00397 1.06702e-17
6030.00146 1.06788e-17
6034.99894 1.07034e-17
6039.99643 1.06077e-17
6045.00392 1.05556e-17
6050.00141 1.04313e-17
6054.99890 1.04181e-17
6059.99638 1.04414e-17
6065.00388 1.02727e-17
6070.00137 1.04060e-17
6074.99885 1.03168e-17
6079.99634 1.02152e-17
6085.00384 1.01439e-17
6090.00132 1.00446e-17
6094.99881 1.00876e-17
6099.99629 9.89637e-18
6105.00379 9.70156e-18
6110.00128 9.41312e-18
6114.99876 9.01280e-18
6119.99625 8.77202e-18
6125.00374 8.71316e-18
6130.00123 8.72372e-18
6134.99872 8.45787e-18
6139.99620 8.31846e-18
6145.00370 8.11903e-18
6150.00119 8.01522e-18
6154.99867 7.78268e-18
6159.99616 7.74645e-18
6165.00366 7.52375e-18
6170.00114 7.34401e-18
6174.99863 7.24672e-18
6179.99611 7.07980e-18
6185.00361 6.99586e-18
6190.00109 6.95843e-18
6194.99858 6.84184e-18
6199.99607 6.90325e-18
6205.00356 6.71462e-18
6210.00105 6.72075e-18
6214.99853 6.76787e-18
6219.99602 6.73886e-18
6225.00352 6.68983e-18
6230.00101 6.74872e-18
6234.99849 6.82519e-18
6239.99597 6.70418e-18
6245.00348 6.84054e-18
6250.00096 6.83319e-18
6254.99845 6.91452e-18
6259.99593 6.83900e-18
6265.00343 6.92515e-18
6270.00091 6.88549e-18
6274.99840 6.82545e-18
6279.99589 6.95601e-18
6285.00339 7.27316e-18
6290.00087 7.21156e-18
6294.99835 7.25235e-18
6299.99584 7.51726e-18
6305.00334 7.84973e-18
6310.00083 7.98901e-18
6314.99831 8.42645e-18
6319.99579 8.63142e-18
6325.00330 9.01822e-18
6330.00078 9.40249e-18
6334.99827 9.53423e-18
6339.99575 9.92705e-18
6345.00325 1.02756e-17
6350.00074 1.07613e-17
6354.99822 1.10459e-17
6359.99571 1.14397e-17
6365.00321 1.18946e-17
6370.00069 1.21807e-17
6374.99818 1.25028e-17
6379.99566 1.27251e-17
6385.00316 1.31784e-17
6390.00065 1.36073e-17
6394.99813 1.39137e-17
6399.99561 1.39972e-17
6405.00312 1.42695e-17
6410.00060 1.46943e-17
6414.99809 1.49233e-17
6419.99557 1.51317e-17
6425.00307 1.53027e-17
6430.00056 1.54093e-17
6434.99804 1.58245e-17
6439.99553 1.58135e-17
6445.00303 1.59067e-17
6450.00051 1.60436e-17
6454.99800 1.60220e-17
6459.99548 1.60656e-17
6465.00298 1.62171e-17
6470.00047 1.63599e-17
6474.99795 1.62693e-17
6479.99544 1.62962e-17
6485.00294 1.63117e-17
6490.00042 1.64143e-17
6494.99791 1.66450e-17
6499.99539 1.65116e-17
6505.00289 1.64450e-17
6510.00038 1.65315e-17
6514.99786 1.62014e-17
6519.99535 1.62058e-17
6525.00284 1.62470e-17
6530.00033 1.61779e-17
6534.99782 1.61292e-17
6539.99530 1.60460e-17
6545.00280 1.58679e-17
6550.00029 1.58534e-17
6554.99777 1.56641e-17
6559.99526 1.57711e-17
6565.00276 1.59283e-17
6570.00024 1.57786e-17
6574.99773 1.54133e-17
6579.99521 1.55311e-17
6585.00271 1.54107e-17
6590.00020 1.52349e-17
6594.99768 1.50585e-17
6599.99517 1.51912e-17
6605.00266 1.49962e-17
6610.00015 1.49972e-17
6614.99764 1.49896e-17
6619.99512 1.46915e-17
6625.00262 1.45589e-17
6630.00011 1.44845e-17
6634.99759 1.43785e-17
6639.99508 1.41359e-17
6645.00258 1.40673e-17
6650.00006 1.38453e-17
6654.99755 1.37854e-17
6659.99503 1.36526e-17
6665.00253 1.36924e-17
6670.00002 1.34952e-17
6674.99750 1.34288e-17
6680.00500 1.33482e-17
6685.00248 1.33165e-17
6689.99997 1.30272e-17
6694.99746 1.28719e-17
6699.99494 1.28426e-17
6705.00244 1.26314e-17
6709.99993 1.27815e-17
6714.99741 1.24389e-17
6720.00491 1.22414e-17
6725.00240 1.21765e-17
6729.99988 1.19580e-17
6734.99737 1.19118e-17
6740.00486 1.19189e-17
6745.00235 1.17116e-17
6749.99984 1.16606e-17
6754.99732 1.15247e-17
6760.00482 1.13298e-17
6765.00230 1.13714e-17
6769.99979 1.11794e-17
6774.99728 1.12757e-17
6780.00478 1.09898e-17
6785.00226 1.10575e-17
6789.99975 1.08901e-17
6794.99723 1.08903e-17
6800.00473 1.06370e-17
6805.00222 1.06072e-17
6809.99970 1.05862e-17
6814.99719 1.05068e-17
6820.00469 1.03888e-17
6825.00217 1.03623e-17
6829.99966 1.02879e-17
6834.99714 1.01822e-17
6840.00464 1.01300e-17
6845.00212 9.99053e-18
6849.99961 1.00216e-17
6854.99709 9.90230e-18
6860.00460 9.83628e-18
6865.00208 9.77699e-18
6869.99957 9.66798e-18
6874.99705 9.73171e-18
6880.00455 9.71680e-18
6885.00204 9.48190e-18
6889.99952 9.46539e-18
6894.99701 9.29013e-18
6900.00451 9.25487e-18
6905.00199 9.18935e-18
6909.99947 9.09207e-18
6914.99696 9.10030e-18
6920.00446 9.02490e-18
6925.00195 9.01480e-18
6929.99943 9.03856e-18
6934.99691 8.76286e-18
6940.00442 8.84239e-18
6945.00190 8.94337e-18
6949.99939 8.83576e-18
6954.99687 8.84065e-18
6960.00437 8.69021e-18
6965.00186 8.67995e-18
6969.99934 8.71142e-18
6974.99683 8.64706e-18
6980.00433 8.63858e-18
6985.00181 8.54698e-18
6989.99930 8.49860e-18
6994.99678 8.58666e-18
7000.00428 8.58127e-18
7005.00177 8.57447e-18
7009.99925 8.34739e-18
7014.99674 8.36480e-18
7020.00424 8.43776e-18
7025.00172 8.18319e-18
7029.99921 8.15898e-18
7034.99669 8.14917e-18
7040.00419 8.18997e-18
7045.00168 8.19971e-18
7049.99916 8.14096e-18
7054.99665 8.06638e-18
7060.00415 7.99012e-18
7065.00163 7.82912e-18
7069.99912 7.91611e-18
7074.99660 7.79399e-18
7080.00410 7.79747e-18
7085.00159 7.75438e-18
7089.99907 7.75221e-18
7094.99656 7.76186e-18
7100.00406 7.68362e-18
7105.00154 7.67807e-18
7109.99903 7.64227e-18
7114.99651 7.87127e-18
7120.00401 7.83824e-18
7125.00150 7.82549e-18
7129.99898 7.59643e-18
7134.99647 7.71925e-18
7140.00397 7.63827e-18
7145.00145 7.67827e-18
7149.99894 7.53831e-18
7154.99642 7.55922e-18
7160.00392 7.59185e-18
7165.00141 7.54058e-18
7169.99889 7.46336e-18
7174.99638 7.63608e-18
7180.00388 7.57255e-18
7185.00136 7.50873e-18
7189.99885 7.55303e-18
7194.99633 7.36313e-18
7200.00383 7.45716e-18
7205.00132 7.46528e-18
7209.99880 7.35561e-18
7214.99629 7.30230e-18
7220.00378 7.33983e-18
7225.00127 7.24521e-18
7229.99876 7.31952e-18
7234.99624 7.27749e-18
7240.00374 7.41814e-18
7245.00122 7.16551e-18
7249.99871 7.03540e-18
7254.99620 7.18135e-18
7260.00370 7.02141e-18
7265.00118 6.99103e-18
7269.99867 6.96157e-18
7274.99615 7.03423e-18
7280.00365 7.02853e-18
7285.00114 7.09863e-18
7289.99862 6.91691e-18
7294.99611 6.96561e-18
7300.00360 6.85727e-18
7305.00109 6.76637e-18
7309.99858 6.99009e-18
7314.99606 6.94630e-18
7320.00356 7.01768e-18
7325.00104 6.98791e-18
7329.99853 6.87622e-18
7334.99602 6.82717e-18
7340.00352 6.95478e-18
7345.00100 6.99471e-18
7349.99849 6.88909e-18
7354.99597 6.89631e-18
7360.00347 6.69937e-18
7365.00096 6.80036e-18
7369.99844 6.87858e-18
7374.99593 6.80161e-18
7380.00342 6.65643e-18
7385.00091 6.65268e-18
7389.99840 6.65900e-18
7394.99588 6.78048e-18
7400.00338 6.67259e-18
7405.00086 6.58737e-18
7409.99835 6.52470e-18
7414.99584 6.52811e-18
7420.00334 6.53592e-18
7425.00082 6.49144e-18
7429.99831 6.50029e-18
7434.99579 6.44007e-18
7440.00329 6.35358e-18
7445.00078 6.36948e-18
7449.99826 6.22914e-18
7454.99575 6.33307e-18
7460.00325 6.26351e-18
7465.00073 6.24341e-18
7469.99822 6.32814e-18
7474.99570 6.13019e-18
7480.00320 6.17695e-18
7485.00068 6.20439e-18
7489.99817 5.95820e-18
7494.99566 6.01401e-18
7500.00316 6.16677e-18
7505.00064 6.16033e-18
7509.99813 6.12710e-18
7514.99561 6.16442e-18
7520.00311 6.03598e-18
7525.00060 5.93024e-18
7529.99808 5.90040e-18
7534.99557 5.99860e-18
7540.00307 6.00607e-18
7545.00055 5.99117e-18
7549.99803 6.02303e-18
7554.99552 6.04385e-18
7560.00302 6.06347e-18
7565.00051 6.02308e-18
7569.99799 6.16212e-18
7574.99547 6.09726e-18
7580.00298 6.01807e-18
7585.00046 5.99066e-18
7589.99795 5.98553e-18
7594.99543 5.99891e-18
7600.00293 6.06153e-18
7605.00042 5.95242e-18
7609.99790 6.00523e-18
7614.99539 5.93569e-18
7620.00289 5.87496e-18
7625.00037 5.88928e-18
7629.99786 5.80122e-18
7634.99534 6.02761e-18
7640.00284 5.88219e-18
7645.00033 5.90722e-18
7649.99781 6.00203e-18
7654.99530 5.98535e-18
7660.00280 5.83001e-18
7665.00028 5.74521e-18
7669.99777 5.78588e-18
7674.99525 5.74279e-18
7680.00275 5.66554e-18
7685.00024 5.87501e-18
7689.99772 5.85962e-18
7694.99521 5.81231e-18
7700.00271 5.77067e-18
7705.00019 5.70906e-18
7709.99768 5.79790e-18
7714.99516 5.77282e-18
7720.00266 5.78879e-18
7725.00015 5.70158e-18
7729.99763 5.57358e-18
7735.00513 5.58120e-18
7740.00262 5.69391e-18
7745.00010 5.74478e-18
7749.99759 5.65338e-18
7754.99507 5.61054e-18
7760.00257 5.78523e-18
7765.00006 5.64820e-18
7769.99754 5.61236e-18
7774.99503 5.62965e-18
7780.00253 5.65251e-18
7785.00001 5.57094e-18
7789.99750 5.54047e-18
7794.99498 5.62098e-18
7800.00248 5.47010e-18
7804.99997 5.60463e-18
7809.99745 5.49271e-18
7814.99494 5.45086e-18
7820.00244 5.43543e-18
7824.99992 5.40585e-18
7829.99741 5.27544e-18
7835.00491 5.35777e-18
7840.00239 5.40301e-18
7844.99988 5.30290e-18
7849.99736 5.34249e-18
7854.99485 5.14376e-18
7860.00234 5.12253e-18
7864.99983 5.29003e-18
7869.99732 5.21645e-18
7875.00482 5.07803e-18
7880.00230 5.09239e-18
7884.99978 5.02423e-18
7889.99727 5.15826e-18
7895.00477 4.89035e-18
7900.00226 4.79506e-18
7904.99974 4.98864e-18
7909.99723 4.88591e-18
7915.00472 4.92699e-18
7920.00221 4.81909e-18
7924.99970 4.68010e-18
7929.99718 4.61780e-18
7935.00468 4.69725e-18
7940.00216 4.64243e-18
7944.99965 4.56309e-18
7949.99714 4.64107e-18
7955.00464 4.60014e-18
7960.00212 4.39574e-18
7964.99960 4.57819e-18
7969.99709 4.41731e-18
7975.00459 4.41110e-18
7980.00208 4.60935e-18
7984.99956 4.50660e-18
7989.99705 4.36280e-18
7995.00454 4.52345e-18
8000.00203 4.37806e-18
8004.99952 4.40246e-18
8009.99700 4.34954e-18
8015.00450 4.28177e-18
8020.00198 4.19594e-18
8024.99947 4.21309e-18
8029.99696 3.97566e-18
8035.00446 4.06499e-18
8040.00194 3.92137e-18
8044.99942 3.93305e-18
8049.99691 3.90005e-18
8055.00441 3.95142e-18
8060.00190 3.79858e-18
8064.99938 3.68155e-18
8069.99687 3.49601e-18
8075.00437 3.46781e-18
8080.00185 3.46681e-18
8084.99934 3.40284e-18
8089.99682 3.30884e-18
8095.00432 3.07538e-18
8100.00181 2.98183e-18
8104.99929 2.87347e-18
8109.99678 2.78892e-18
8115.00428 2.62872e-18
8120.00176 2.76081e-18
8124.99924 2.59720e-18
8129.99673 2.45017e-18
8135.00423 2.36878e-18
8140.00172 2.27207e-18
8144.99920 2.18002e-18
8149.99669 2.20172e-18
8155.00419 2.09759e-18
8160.00167 2.12978e-18
8164.99916 2.17458e-18
8169.99664 2.03655e-18
8175.00414 1.86141e-18
8180.00163 1.97823e-18
8184.99911 2.16546e-18
8189.99659 2.15406e-18
8195.00410 2.21890e-18
8200.00158 2.12136e-18
8204.99906 2.10461e-18
8209.99655 2.12361e-18
8215.00405 2.13137e-18
8220.00154 2.18245e-18
8224.99902 2.18023e-18
8229.99651 2.29267e-18
8235.00401 2.11750e-18
8240.00149 2.09564e-18
8244.99898 2.05003e-18
8249.99646 1.97327e-18
8255.00396 1.92467e-18
8260.00144 2.07817e-18
8264.99893 2.03860e-18
8269.99642 1.80490e-18
8275.00392 1.87593e-18
8280.00140 1.82656e-18
8284.99889 1.86199e-18
8289.99637 1.91664e-18
8295.00387 1.83040e-18
8300.00136 1.75591e-18
8304.99884 1.79970e-18
8309.99633 1.85061e-18
8315.00382 1.90630e-18
8320.00131 1.84485e-18
8324.99880 1.57988e-18
8329.99628 1.94660e-18
8335.00378 1.90427e-18
8340.00127 1.80503e-18
8344.99875 1.72930e-18
8349.99624 1.73878e-18
8355.00374 1.74825e-18
8360.00122 1.81136e-18
8364.99870 1.87176e-18
8369.99619 1.98297e-18
8375.00369 1.94185e-18
8380.00118 1.94512e-18
8384.99866 2.01327e-18
8389.99615 1.88844e-18
8395.00365 1.98462e-18
8400.00113 1.91709e-18
8404.99862 2.17449e-18
8409.99610 2.15334e-18
8415.00360 2.02946e-18
8420.00108 2.25459e-18
8424.99857 2.07303e-18
8429.99606 2.21911e-18
8435.00356 2.32118e-18
8440.00104 2.21913e-18
8444.99853 2.29938e-18
8449.99601 2.40587e-18
8455.00351 2.37373e-18
8460.00100 2.26027e-18
8462.00400 2.26027e-18
8463.99698 2.18209e-18
8465.99998 2.18527e-18
8468.00298 2.24380e-18
8469.99597 2.17478e-18
8471.99897 2.17155e-18
8474.00196 2.18238e-18
8475.99495 2.17982e-18
8477.99795 2.19848e-18
8480.00095 2.20610e-18
8482.00395 2.22004e-18
8483.99694 2.23475e-18
8485.99994 2.17237e-18
8488.00294 2.18211e-18
8489.99592 2.21095e-18
8491.99892 2.20544e-18
8494.00192 2.21792e-18
8496.00492 2.24120e-18
8497.99791 2.19206e-18
8500.00091 2.23661e-18
8502.00391 2.21219e-18
8503.99689 2.17805e-18
8505.99989 2.17877e-18
8508.00289 2.19559e-18
8509.99588 2.18173e-18
8511.99888 2.23297e-18
8514.00187 2.21729e-18
8516.00488 2.22134e-18
8517.99786 2.19215e-18
8520.00086 2.20552e-18
8522.00386 2.18742e-18
8523.99684 2.19864e-18
8525.99985 2.23789e-18
8528.00285 2.19676e-18
8529.99583 2.20254e-18
8531.99883 2.21065e-18
8534.00183 2.19036e-18
8535.99482 2.20498e-18
8537.99781 2.24428e-18
8540.00081 2.20906e-18
8542.00382 2.15035e-18
8543.99680 2.21120e-18
8545.99980 2.16999e-18
8548.00280 2.23282e-18
8549.99579 2.19120e-18
8551.99879 2.18537e-18
8554.00179 2.18297e-18
8556.00479 2.16384e-18
8557.99777 2.17087e-18
8560.00077 2.18281e-18
8562.00377 2.22497e-18
8563.99676 2.18417e-18
8565.99976 2.19329e-18
8568.00276 2.17446e-18
8569.99574 2.16647e-18
8571.99874 2.15508e-18
8574.00174 2.15807e-18
8576.00474 2.20907e-18
8577.99772 2.14527e-18
8580.00072 2.15711e-18
8582.00373 2.16979e-18
8583.99671 2.12992e-18
8585.99971 2.17602e-18
8588.00271 2.15374e-18
8589.99569 2.17005e-18
8591.99870 2.18295e-18
8594.00169 2.11655e-18
8595.99468 2.16362e-18
8597.99768 2.16572e-18
8600.00068 2.13524e-18
8602.00368 2.13890e-18
8603.99667 2.12244e-18
8605.99967 2.09473e-18
8608.00267 2.12398e-18
8609.99565 2.14585e-18
8611.99865 2.15138e-18
8614.00165 2.14796e-18
8616.00465 2.12640e-18
8617.99764 2.14668e-18
8620.00064 2.13137e-18
8622.00364 2.11076e-18
8623.99662 2.11914e-18
8625.99962 2.13256e-18
8628.00262 2.09774e-18
8629.99561 2.13642e-18
8631.99861 2.10414e-18
8634.00160 2.09368e-18
8636.00461 2.11796e-18
8637.99759 2.13768e-18
8640.00059 2.09517e-18
8642.00359 2.12671e-18
8643.99657 2.12740e-18
8645.99957 2.13189e-18
8648.00258 2.07241e-18
8649.99556 2.06089e-18
8651.99856 2.13077e-18
8654.00156 2.10542e-18
8656.00456 2.08648e-18
8657.99755 2.14087e-18
8660.00055 2.08121e-18
8662.00355 2.10432e-18
8663.99653 2.06950e-18
8665.99953 2.12467e-18
8668.00253 2.07296e-18
8669.99552 2.05437e-18
8671.99852 2.10808e-18
8674.00151 2.10546e-18
8676.00452 2.05525e-18
8677.99750 2.05845e-18
8680.00050 2.08550e-18
8682.00350 2.08802e-18
8683.99648 2.08382e-18
8685.99949 2.09746e-18
8688.00249 2.05419e-18
8689.99547 2.06753e-18
8691.99847 2.04760e-18
8694.00147 2.07786e-18
8696.00447 2.10602e-18
8697.99746 2.09830e-18
8700.00045 2.05488e-18
8702.00346 2.03128e-18
8703.99644 2.06369e-18
8705.99944 2.05587e-18
8708.00244 2.00159e-18
8709.99543 2.03941e-18
8711.99843 2.04790e-18
8714.00143 2.03107e-18
8716.00443 2.07163e-18
8717.99741 2.08155e-18
8720.00041 2.04265e-18
8722.00341 2.05626e-18
8723.99640 2.07695e-18
8725.99940 2.09729e-18
8728.00240 2.02180e-18
8729.99538 2.01677e-18
8731.99838 2.00328e-18
8734.00138 2.00555e-18
8736.00438 2.02639e-18
8737.99737 1.98792e-18
8740.00036 2.02423e-18
8742.00337 2.03546e-18
8743.99635 2.01530e-18
8745.99935 2.01798e-18
8748.00235 2.00152e-18
8749.99533 2.03898e-18
8751.99834 2.03931e-18
8754.00133 2.01287e-18
8756.00433 1.97186e-18
8757.99732 1.95785e-18
8760.00032 2.00181e-18
8762.00332 1.99553e-18
8763.99631 1.99323e-18
8765.99931 1.96467e-18
8768.00231 1.99117e-18
8769.99529 1.97285e-18
8771.99829 2.00704e-18
8774.00129 1.98862e-18
8776.00429 1.94608e-18
8777.99728 1.94595e-18
8780.00028 2.00679e-18
8782.00328 1.94147e-18
8783.99626 1.92720e-18
8785.99926 1.96792e-18
8788.00226 1.93294e-18
8789.99525 1.88942e-18
8791.99825 1.95448e-18
8794.00125 1.92978e-18
8796.00425 1.94308e-18
8797.99723 1.93448e-18
8800.00023 1.90747e-18
8802.00323 1.92259e-18
8803.99621 1.93967e-18
8805.99921 1.99409e-18
8808.00222 1.93706e-18
8809.99520 1.93717e-18
8811.99820 1.91347e-18
8814.00120 1.92636e-18
8816.00420 1.92113e-18
8817.99719 1.96506e-18
8820.00019 1.94299e-18
8822.00319 1.91648e-18
8823.99617 1.94157e-18
8825.99917 1.94026e-18
8828.00217 1.91504e-18
8829.99516 1.92956e-18
8831.99816 1.90652e-18
8834.00116 1.93530e-18
8836.00416 1.92949e-18
8837.99714 1.90478e-18
8840.00014 1.88535e-18
8842.00314 1.88755e-18
8843.99612 1.92590e-18
8845.99913 1.91107e-18
8848.00213 1.94104e-18
8850.00512 1.90546e-18
8851.99811 1.91494e-18
8854.00111 1.93129e-18
8856.00411 1.95085e-18
8857.99710 1.95138e-18
8860.00009 1.98289e-18
8862.00310 1.98146e-18
8863.99608 2.03375e-18
8865.99908 1.99204e-18
8868.00208 1.97207e-18
8869.99506 1.95278e-18
8871.99806 1.94930e-18
8874.00107 1.94811e-18
8876.00406 1.91687e-18
8877.99705 1.91771e-18
8880.00005 1.90206e-18
8882.00305 1.89494e-18
8883.99604 1.90383e-18
8885.99904 1.90585e-18
8888.00204 1.89500e-18
8889.99502 1.87363e-18
8891.99802 1.84698e-18
8894.00102 1.89543e-18
8896.00402 1.89679e-18
8897.99701 1.87922e-18
8900.00000 1.89934e-18
8902.00301 1.84987e-18
8903.99599 1.88821e-18
8905.99899 1.84985e-18
8908.00199 1.86746e-18
8910.00499 1.88477e-18
8911.99798 1.88283e-18
8914.00098 1.86284e-18
8916.00397 1.90500e-18
8917.99696 1.94038e-18
8919.99996 1.85614e-18
8922.00296 1.85241e-18
8923.99595 1.85559e-18
8925.99894 1.85810e-18
8928.00194 1.88080e-18
8929.99493 1.86851e-18
8931.99793 1.84338e-18
8934.00093 1.83013e-18
8936.00393 1.82974e-18
8937.99692 1.81552e-18
8939.99992 1.83196e-18
8942.00292 1.80750e-18
8943.99590 1.85689e-18
8945.99890 1.85402e-18
8948.00190 1.81553e-18
8949.99489 1.80524e-18
8951.99789 1.79823e-18
8954.00089 1.83784e-18
8956.00389 1.85039e-18
8957.99687 1.83707e-18
8959.99987 1.80123e-18
8962.00287 1.80870e-18
8963.99586 1.83236e-18
8965.99885 1.85399e-18
8968.00186 1.80872e-18
8970.00486 1.83203e-18
8971.99784 1.85221e-18
8974.00084 1.85619e-18
8976.00384 1.84666e-18
8977.99683 1.79375e-18
8979.99982 1.83182e-18
8982.00282 1.89491e-18
8983.99581 1.81396e-18
8985.99881 1.80010e-18
8988.00181 1.90906e-18
8990.00481 1.79737e-18
8991.99780 1.86914e-18
8994.00080 1.82404e-18
8996.00380 1.83791e-18
8997.99678 1.80941e-18
8999.99978 1.81743e-18
9002.00278 1.86840e-18
9003.99577 1.92413e-18
9005.99877 1.89767e-18
9008.00177 1.88298e-18
9009.99475 1.86866e-18
9011.99775 1.98031e-18
9014.00075 1.95307e-18
9016.00375 1.95618e-18
9017.99674 2.04292e-18
9019.99973 1.85617e-18
9022.00274 1.85797e-18
9023.99572 1.86767e-18
9025.99872 1.88598e-18
9028.00172 1.81393e-18
9030.00472 1.80285e-18
9031.99770 1.79476e-18
9034.00071 1.82868e-18
9036.00370 1.82256e-18
9037.99669 1.75408e-18
9039.99969 1.74730e-18
9042.00269 1.79946e-18
9043.99568 1.81098e-18
9045.99868 1.75020e-18
9048.00168 1.80468e-18
9050.00468 1.77430e-18
9051.99766 1.76262e-18
9054.00066 1.81898e-18
9056.00366 1.77279e-18
9057.99665 1.76949e-18
9059.99965 1.79263e-18
9062.00265 1.79452e-18
9063.99563 1.84776e-18
9065.99863 1.79945e-18
9068.00163 1.78555e-18
9070.00463 1.75920e-18
9071.99762 1.72904e-18
9074.00062 1.79950e-18
9076.00361 1.81540e-18
9077.99660 1.74915e-18
9079.99960 1.77086e-18
9082.00260 1.79628e-18
9083.99559 1.74884e-18
9085.99858 1.69278e-18
9088.00158 1.76918e-18
9090.00459 1.76783e-18
9091.99757 1.73222e-18
9094.00057 1.76125e-18
9096.00357 1.76920e-18
9097.99656 1.70472e-18
9099.99956 1.75450e-18
9102.00256 1.79874e-18
9103.99554 1.74802e-18
9105.99854 1.75434e-18
9108.00154 1.76141e-18
9110.00454 1.75669e-18
9111.99753 1.74733e-18
9114.00053 1.75925e-18
9116.00353 1.69547e-18
9117.99651 1.73832e-18
9119.99951 1.75773e-18
9122.00251 1.75021e-18
9123.99550 1.75009e-18
9125.99849 1.76213e-18
9128.00150 1.72271e-18
9130.00450 1.75190e-18
9131.99748 1.77415e-18
9134.00048 1.68966e-18
9136.00348 1.80076e-18
9137.99647 1.77023e-18
9139.99947 1.74507e-18
9142.00246 1.72929e-18
9143.99545 1.71786e-18
9145.99845 1.71505e-18
9148.00145 1.75911e-18
9150.00445 1.72700e-18
9151.99744 1.76690e-18
9154.00044 1.73571e-18
9156.00344 1.75942e-18
9157.99642 1.72672e-18
9159.99942 1.69994e-18
9162.00242 1.74677e-18
9163.99541 1.72919e-18
9165.99841 1.72799e-18
9168.00141 1.73376e-18
9170.00441 1.74325e-18
9171.99739 1.71591e-18
9174.00039 1.72791e-18
9176.00339 1.76386e-18
9177.99638 1.72272e-18
9179.99938 1.73645e-18
9182.00238 1.70398e-18
9183.99536 1.71906e-18
9185.99836 1.72765e-18
9188.00136 1.68399e-18
9190.00436 1.71665e-18
9191.99734 1.74483e-18
9194.00035 1.68354e-18
9196.00335 1.71828e-18
9197.99633 1.72601e-18
9199.99933 1.70253e-18
9202.00233 1.71509e-18
9203.99532 1.68255e-18
9205.99831 1.69912e-18
9208.00131 1.75576e-18
9210.00432 1.72965e-18
9211.99730 1.73479e-18
9214.00030 1.75499e-18
9216.00330 1.77364e-18
9217.99629 1.74534e-18
9219.99929 1.78707e-18
9222.00229 1.75765e-18
9223.99527 1.77004e-18
9225.99827 1.86150e-18
9228.00127 1.91572e-18
9230.00427 1.93748e-18
9231.99726 1.87187e-18
9234.00026 1.83328e-18
9236.00326 1.76528e-18
9237.99624 1.75823e-18
9239.99924 1.73797e-18
9242.00224 1.69631e-18
9243.99523 1.69295e-18
9245.99822 1.69277e-18
9248.00122 1.67694e-18
9250.00423 1.66555e-18
9251.99721 1.72226e-18
9254.00021 1.67672e-18
9256.00321 1.67213e-18
9257.99619 1.66668e-18
9259.99920 1.68005e-18
9262.00219 1.68985e-18
9263.99518 1.72290e-18
9265.99818 1.69976e-18
9268.00118 1.67056e-18
9270.00418 1.70442e-18
9271.99717 1.65152e-18
9274.00017 1.70442e-18
9276.00317 1.67029e-18
9277.99615 1.66081e-18
9279.99915 1.72277e-18
9282.00215 1.68462e-18
9283.99514 1.64483e-18
9285.99813 1.70170e-18
9288.00114 1.70877e-18
9290.00414 1.68261e-18
9291.99712 1.67070e-18
9294.00012 1.70073e-18
9296.00312 1.69481e-18
9297.99611 1.67563e-18
9299.99911 1.68009e-18
9302.00210 1.66873e-18
9303.99509 1.70784e-18
9305.99809 1.61093e-18
9308.00109 1.60001e-18
9310.00409 1.80268e-18
9311.99707 1.69391e-18
9314.00007 1.56268e-18
9316.00308 1.66667e-18
9317.99606 1.73047e-18
9319.99906 1.70635e-18
9322.00206 1.60358e-18
9324.00506 1.71701e-18
9325.99805 1.71658e-18
9328.00105 1.69414e-18
9330.00405 1.59552e-18
9331.99703 1.62429e-18
9334.00003 1.70197e-18
9336.00303 1.69007e-18
9337.99602 1.70823e-18
9339.99902 1.69672e-18
9342.00202 1.51456e-18
9343.99500 1.75692e-18
9345.99800 1.80829e-18
9348.00100 1.66324e-18
9350.00400 1.61079e-18
9351.99698 1.52401e-18
9353.99999 1.74223e-18
9356.00299 1.62971e-18
9357.99597 1.67985e-18
9359.99897 1.79370e-18
9362.00197 1.65853e-18
9363.99496 1.53498e-18
9365.99796 1.63272e-18
9368.00095 1.59353e-18
9370.00396 1.60389e-18
9371.99694 1.76657e-18
9373.99994 1.62317e-18
9376.00294 1.62048e-18
9377.99593 1.62067e-18
9379.99893 1.60632e-18
9382.00193 1.73372e-18
9384.00493 1.65881e-18
9385.99791 1.58675e-18
9388.00091 1.67261e-18
9390.00391 1.58716e-18
9391.99690 1.56353e-18
9393.99990 1.62414e-18
9396.00290 1.58272e-18
9397.99588 1.56127e-18
9399.99888 1.60506e-18
9402.00188 1.61979e-18
9404.00488 1.60907e-18
9405.99787 1.59580e-18
9408.00086 1.56835e-18
9410.00387 1.63047e-18
9411.99685 1.67410e-18
9413.99985 1.62650e-18
9416.00285 1.55912e-18
9417.99583 1.62484e-18
9419.99884 1.57015e-18
9422.00183 1.60373e-18
9423.99482 1.50197e-18
9425.99782 1.48371e-18
9428.00082 1.66739e-18
9430.00382 1.74677e-18
9431.99681 1.62800e-18
9433.99981 1.55097e-18
9436.00281 1.51334e-18
9437.99579 1.54656e-18
9439.99879 1.58191e-18
9442.00179 1.68037e-18
9444.00479 1.61686e-18
9445.99778 1.60559e-18
9448.00078 1.53779e-18
9450.00378 1.62610e-18
9451.99676 1.56268e-18
9453.99976 1.49582e-18
9456.00276 1.69967e-18
9457.99575 1.50015e-18
9459.99875 1.49021e-18
9462.00174 1.65224e-18
9464.00475 1.57918e-18
9465.99773 1.54660e-18
9468.00073 1.48694e-18
9470.00373 1.61366e-18
9471.99671 1.54197e-18
9473.99971 1.51331e-18
9476.00272 1.64555e-18
9477.99570 1.52786e-18
9479.99870 1.49127e-18
9482.00170 1.68192e-18
9483.99469 1.61637e-18
9485.99769 1.51951e-18
9488.00069 1.55891e-18
9490.00369 1.55588e-18
9491.99667 1.48845e-18
9493.99967 1.58529e-18
9496.00267 1.59326e-18
9497.99566 1.52646e-18
9499.99866 1.52128e-18
9502.00166 1.68440e-18
9504.00466 1.56761e-18
9505.99764 1.55933e-18
9508.00064 1.55010e-18
9510.00364 1.58333e-18
9511.99662 1.52517e-18
9513.99963 1.50922e-18
9516.00263 1.48299e-18
9517.99561 1.54990e-18
9519.99861 1.52619e-18
9522.00161 1.54372e-18
9524.00461 1.54430e-18
9525.99760 1.48967e-18
9528.00059 1.53746e-18
9530.00360 1.57670e-18
9531.99658 1.52959e-18
9533.99958 1.50250e-18
9536.00258 1.57227e-18
9537.99556 1.58555e-18
9539.99856 1.52853e-18
9542.00157 1.53998e-18
9544.00456 1.66285e-18
9545.99755 1.76373e-18
9548.00055 1.66295e-18
9550.00355 1.58641e-18
9551.99654 1.53595e-18
9553.99954 1.59314e-18
9556.00254 1.62131e-18
9557.99552 1.61158e-18
9559.99852 1.54642e-18
9562.00152 1.46896e-18
9564.00452 1.52767e-18
9565.99751 1.52543e-18
9568.00050 1.49957e-18
9570.00351 1.49541e-18
9571.99649 1.46590e-18
9573.99949 1.46002e-18
9576.00249 1.46952e-18
9577.99547 1.44124e-18
9579.99848 1.49001e-18
9582.00148 1.59510e-18
9584.00447 1.49997e-18
9585.99746 1.45456e-18
9588.00046 1.42337e-18
9590.00346 1.47769e-18
9591.99644 1.52058e-18
9593.99944 1.50735e-18
9596.00245 1.44479e-18
9597.99543 1.48769e-18
9599.99843 1.51240e-18
9602.00143 1.48306e-18
9604.00443 1.45433e-18
9605.99742 1.47882e-18
9608.00042 1.51515e-18
9610.00342 1.52099e-18
9611.99640 1.49273e-18
9613.99940 1.46114e-18
9616.00240 1.44682e-18
9617.99539 1.44584e-18
9619.99839 1.42885e-18
9622.00139 1.46581e-18
9624.00439 1.43786e-18
9625.99737 1.47084e-18
9628.00037 1.51412e-18
9630.00337 1.49659e-18
9631.99636 1.41358e-18
9633.99935 1.43106e-18
9636.00236 1.46052e-18
9637.99534 1.51647e-18
9639.99834 1.47109e-18
9642.00134 1.42976e-18
9644.00434 1.43186e-18
9645.99733 1.50121e-18
9648.00032 1.45085e-18
9650.00332 1.42771e-18
9651.99631 1.47068e-18
9653.99931 1.45468e-18
9656.00231 1.46409e-18
9657.99530 1.43250e-18
9659.99830 1.43171e-18
9662.00130 1.48180e-18
9664.00430 1.48570e-18
9665.99728 1.43185e-18
9668.00028 1.41780e-18
9670.00328 1.46683e-18
9671.99627 1.49062e-18
9673.99927 1.48660e-18
9676.00227 1.49864e-18
9677.99525 1.42117e-18
9679.99825 1.42256e-18
9682.00125 1.43819e-18
9684.00425 1.44343e-18
9685.99724 1.43065e-18
9688.00023 1.46720e-18
9690.00324 1.42937e-18
9691.99622 1.45847e-18
9693.99922 1.45161e-18
9696.00222 1.41894e-18
9697.99520 1.41460e-18
9699.99820 1.41055e-18
9702.00121 1.42173e-18
9704.00420 1.41430e-18
9705.99719 1.38165e-18
9708.00019 1.42871e-18
9710.00319 1.42606e-18
9711.99618 1.38548e-18
9713.99918 1.42608e-18
9716.00218 1.47904e-18
9717.99516 1.40914e-18
9719.99816 1.44482e-18
9722.00116 1.43763e-18
9724.00416 1.48566e-18
9725.99715 1.43305e-18
9728.00014 1.48568e-18
9730.00315 1.40951e-18
9731.99613 1.40960e-18
9733.99913 1.40764e-18
9736.00213 1.42817e-18
9738.00513 1.46929e-18
9739.99812 1.43217e-18
9742.00112 1.38573e-18
9744.00411 1.44742e-18
9745.99710 1.44244e-18
9748.00010 1.44119e-18
9750.00310 1.42150e-18
9751.99609 1.39718e-18
9753.99908 1.38422e-18
9756.00209 1.43919e-18
9757.99507 1.45321e-18
9759.99807 1.41822e-18
9762.00107 1.43525e-18
9764.00407 1.45339e-18
9765.99706 1.40599e-18
9768.00006 1.40125e-18
9770.00306 1.42258e-18
9771.99604 1.39191e-18
9773.99904 1.40670e-18
9776.00204 1.39917e-18
9777.99503 1.42311e-18
9779.99803 1.40117e-18
9782.00103 1.43647e-18
9784.00403 1.41594e-18
9785.99701 1.43581e-18
9788.00001 1.40431e-18
9790.00301 1.39614e-18
9791.99600 1.41332e-18
9793.99899 1.49771e-18
9796.00200 1.41061e-18
9798.00500 1.39244e-18
9799.99798 1.43820e-18
9802.00098 1.40488e-18
9804.00398 1.41122e-18
9805.99697 1.46542e-18
9807.99997 1.41325e-18
9810.00296 1.41185e-18
9811.99595 1.41494e-18
9813.99895 1.39207e-18
9816.00195 1.36447e-18
9817.99494 1.37431e-18
9819.99794 1.41643e-18
9822.00094 1.40508e-18
9824.00394 1.39097e-18
9825.99692 1.43769e-18
9827.99992 1.40643e-18
9830.00292 1.42144e-18
9831.99591 1.44461e-18
9833.99891 1.43418e-18
9836.00191 1.43825e-18
9837.99489 1.42940e-18
9839.99789 1.42776e-18
9842.00089 1.39145e-18
9844.00389 1.39064e-18
9845.99688 1.39668e-18
9847.99988 1.37921e-18
9850.00288 1.39078e-18
9851.99586 1.40017e-18
9853.99886 1.41872e-18
9856.00186 1.38323e-18
9858.00486 1.39727e-18
9859.99784 1.41261e-18
9862.00085 1.39985e-18
9864.00384 1.41902e-18
9865.99683 1.40649e-18
9867.99983 1.40260e-18
9870.00283 1.41937e-18
9871.99582 1.38815e-18
9873.99881 1.43956e-18
9876.00181 1.39825e-18
9878.00482 1.40870e-18
9879.99780 1.39942e-18
9882.00080 1.42514e-18
9884.00380 1.40576e-18
9885.99679 1.41356e-18
9887.99979 1.37643e-18
9890.00279 1.36291e-18
9891.99577 1.38388e-18
9893.99877 1.37997e-18
9896.00177 1.41254e-18
9897.99476 1.38518e-18
9899.99776 1.39121e-18
9902.00076 1.38402e-18
9904.00375 1.36788e-18
9905.99674 1.38228e-18
9907.99974 1.34419e-18
9910.00274 1.38690e-18
9911.99573 1.38333e-18
9913.99872 1.47318e-18
9916.00173 1.39614e-18
9918.00473 1.40381e-18
9919.99771 1.39378e-18
9922.00071 1.35486e-18
9924.00371 1.32533e-18
9925.99669 1.38817e-18
9927.99970 1.37307e-18
9930.00269 1.37352e-18
9931.99568 1.38267e-18
9933.99868 1.41752e-18
9936.00168 1.38430e-18
9938.00468 1.38080e-18
9939.99767 1.37481e-18
9942.00067 1.33955e-18
9944.00367 1.35146e-18
9945.99665 1.36335e-18
9947.99965 1.43231e-18
9950.00265 1.36990e-18
9951.99564 1.35101e-18
9953.99863 1.39409e-18
9956.00164 1.35503e-18
9957.99462 1.35804e-18
9959.99762 1.33863e-18
9962.00062 1.39994e-18
9964.00362 1.37725e-18
9965.99661 1.37191e-18
9967.99961 1.37178e-18
9970.00260 1.37703e-18
9971.99559 1.38245e-18
9973.99859 1.33608e-18
9976.00159 1.35239e-18
9978.00459 1.36619e-18
9979.99757 1.38761e-18
9982.00058 1.36064e-18
9984.00358 1.35469e-18
9985.99656 1.35056e-18
9987.99956 1.31679e-18
9990.00256 1.37281e-18
9991.99555 1.37609e-18
9993.99855 1.33651e-18
9996.00155 1.37696e-18
9998.00455 1.32721e-18
9999.99753 1.33861e-18
