# wavelength flux
3209.99779 1.53941e-17
3212.00079 1.46735e-17
3214.00379 1.38810e-17
3215.99677 1.64694e-17
3217.99977 1.51428e-17
3220.00277 1.24188e-17
3221.99576 1.38541e-17
3223.99876 1.53275e-17
3226.00176 1.48724e-17
3228.00476 1.61573e-17
3229.99774 1.49934e-17
3232.00074 1.46525e-17
3234.00374 1.52466e-17
3235.99673 1.54236e-17
3237.99973 1.73420e-17
3240.00273 1.56131e-17
3241.99571 1.39123e-17
3243.99871 1.47772e-17
3246.00171 1.31289e-17
3248.00471 1.55400e-17
3249.99770 1.36436e-17
3252.00070 1.27298e-17
3254.00370 1.33795e-17
3255.99668 1.47127e-17
3257.99968 1.53057e-17
3260.00268 1.36179e-17
3261.99567 1.58033e-17
3263.99867 1.38060e-17
3266.00167 1.50450e-17
3268.00467 1.44048e-17
3269.99765 1.47030e-17
3272.00065 1.63701e-17
3274.00365 1.41140e-17
3275.99664 1.41492e-17
3277.99964 1.52790e-17
3280.00264 1.35124e-17
3281.99562 1.51281e-17
3283.99862 1.55409e-17
3286.00162 1.57142e-17
3288.00462 1.46948e-17
3289.99761 1.52614e-17
3292.00061 1.53826e-17
3294.00361 1.53502e-17
3295.99659 1.47415e-17
3297.99959 1.60858e-17
3300.00259 1.36818e-17
3301.99558 1.51199e-17
3303.99858 1.48425e-17
3306.00158 1.57405e-17
3308.00458 1.49849e-17
3309.99756 1.51584e-17
3312.00056 1.66723e-17
3314.00356 1.59041e-17
3315.99655 1.47811e-17
3317.99955 1.50516e-17
3320.00255 1.55668e-17
3321.99553 1.57622e-17
3323.99853 1.53629e-17
3326.00153 1.49057e-17
3328.00453 1.56671e-17
3329.99752 1.45163e-17
3332.00052 1.53622e-17
3334.00352 1.56143e-17
3335.99650 1.62490e-17
3337.99950 1.59386e-17
3340.00250 1.57253e-17
3341.99548 1.58668e-17
3343.99849 1.55486e-17
3346.00148 1.58065e-17
3348.00448 1.59433e-17
3349.99747 1.51563e-17
3352.00047 1.55965e-17
3354.00347 1.47239e-17
3355.99645 1.61848e-17
3357.99946 1.59946e-17
3360.00245 1.60975e-17
3361.99544 1.57778e-17
3363.99844 1.59797e-17
3366.00144 1.60644e-17
3368.00444 1.57535e-17
3369.99743 1.61181e-17
3372.00043 1.58876e-17
3374.00342 1.52207e-17
3375.99641 1.54202e-17
3377.99941 1.50039e-17
3380.00241 1.72166e-17
3381.99539 1.69762e-17
3383.99840 1.70975e-17
3386.00140 1.56618e-17
3388.00439 1.68710e-17
3389.99738 1.56775e-17
3392.00038 1.57963e-17
3394.00338 1.66964e-17
3395.99636 1.62568e-17
3397.99937 1.57193e-17
3400.00236 1.66966e-17
3401.99535 1.72251e-17
3403.99835 1.62101e-17
3406.00135 1.58207e-17
3408.00435 1.64321e-17
3409.99734 1.59033e-17
3412.00034 1.57020e-17
3414.00333 1.70763e-17
3415.99632 1.62273e-17
3417.99932 1.61571e-17
3420.00232 1.68243e-17
3421.99530 1.58259e-17
3423.99831 1.62458e-17
3426.00131 1.59434e-17
3428.00430 1.58274e-17
3429.99729 1.65402e-17
3432.00029 1.62446e-17
3434.00329 1.64565e-17
3435.99627 1.57827e-17
3437.99928 1.65562e-17
3440.00228 1.68297e-17
3441.99526 1.57746e-17
3443.99826 1.65350e-17
3446.00126 1.65800e-17
3448.00426 1.57068e-17
3449.99725 1.58324e-17
3452.00025 1.62164e-17
3454.00325 1.60856e-17
3455.99623 1.57087e-17
3457.99923 1.62569e-17
3460.00223 1.61149e-17
3461.99521 1.67754e-17
3463.99822 1.61766e-17
3466.00122 1.67054e-17
3468.00421 1.62162e-17
3469.99720 1.65166e-17
3472.00020 1.64950e-17
3474.00320 1.62270e-17
3475.99618 1.63777e-17
3477.99919 1.66964e-17
3480.00219 1.65909e-17
3481.99517 1.61976e-17
3483.99817 1.64495e-17
3486.00117 1.61948e-17
3488.00417 1.62224e-17
3489.99716 1.59950e-17
3492.00016 1.57648e-17
3494.00316 1.61937e-17
3495.99614 1.60818e-17
3497.99914 1.64054e-17
3500.00214 1.66506e-17
3501.99513 1.63125e-17
3503.99813 1.67280e-17
3506.00113 1.63979e-17
3508.00413 1.67266e-17
3509.99711 1.67305e-17
3512.00011 1.68781e-17
3514.00311 1.67050e-17
3515.99610 1.64597e-17
3517.99910 1.65810e-17
3520.00210 1.66407e-17
3521.99508 1.67537e-17
3523.99808 1.66493e-17
3526.00108 1.64921e-17
3528.00408 1.65111e-17
3529.99707 1.62915e-17
3532.00007 1.58962e-17
3534.00307 1.61593e-17
3535.99605 1.63981e-17
3537.99905 1.48976e-17
3540.00205 1.55591e-17
3541.99504 1.62054e-17
3543.99804 1.56612e-17
3546.00104 1.63751e-17
3548.00404 1.67371e-17
3549.99702 1.56712e-17
3552.00002 1.60872e-17
3554.00302 1.67588e-17
3555.99601 1.59473e-17
3557.99901 1.57874e-17
3560.00201 1.62968e-17
3562.00501 1.58581e-17
3563.99799 1.59444e-17
3566.00099 1.58033e-17
3568.00399 1.60490e-17
3569.99698 1.53290e-17
3571.99998 1.56559e-17
3574.00298 1.55086e-17
3575.99596 1.54280e-17
3577.99896 1.51216e-17
3580.00196 1.57462e-17
3582.00496 1.62644e-17
3583.99795 1.64152e-17
3586.00095 1.62319e-17
3588.00395 1.55030e-17
3589.99693 1.62337e-17
3591.99993 1.56957e-17
3594.00293 1.55864e-17
3595.99592 1.59866e-17
3597.99892 1.66500e-17
3600.00192 1.66018e-17
3601.99490 1.61929e-17
3603.99790 1.58243e-17
3606.00090 1.57873e-17
3608.00390 1.58314e-17
3609.99689 1.66052e-17
3611.99989 1.59700e-17
3614.00289 1.62812e-17
3615.99587 1.65369e-17
3617.99887 1.64153e-17
3620.00187 1.59404e-17
3622.00487 1.61982e-17
3623.99786 1.66192e-17
3626.00086 1.63217e-17
3628.00386 1.64590e-17
3629.99684 1.71417e-17
3631.99984 1.66732e-17
3634.00284 1.65969e-17
3635.99583 1.66779e-17
3637.99883 1.67037e-17
3640.00183 1.67524e-17
3642.00483 1.69628e-17
3643.99781 1.66077e-17
3646.00081 1.70676e-17
3648.00381 1.68593e-17
3649.99680 1.69751e-17
3651.99980 1.68360e-17
3654.00280 1.71738e-17
3655.99578 1.78645e-17
3657.99878 1.72927e-17
3660.00178 1.68909e-17
3662.00478 1.75760e-17
3663.99777 1.71795e-17
3666.00077 1.72699e-17
3668.00377 1.73388e-17
3669.99675 1.75204e-17
3671.99975 1.73821e-17
3674.00275 1.76256e-17
3675.99573 1.73873e-17
3677.99874 1.77033e-17
3680.00173 1.77633e-17
3682.00473 1.71493e-17
3683.99772 1.70999e-17
3686.00072 1.71053e-17
3688.00372 1.70043e-17
3689.99671 1.71678e-17
3691.99971 1.71287e-17
3694.00270 1.73269e-17
3695.99569 1.67449e-17
3697.99869 1.74682e-17
3700.00169 1.70689e-17
3702.00469 1.70308e-17
3703.99768 1.74470e-17
3706.00068 1.76708e-17
3708.00367 1.71586e-17
3709.99666 1.72200e-17
3711.99966 1.73736e-17
3714.00266 1.74802e-17
3715.99564 1.73434e-17
3717.99865 1.73249e-17
3720.00164 1.72927e-17
3722.00464 1.66601e-17
3723.99763 1.68524e-17
3726.00063 1.70634e-17
3728.00363 1.67973e-17
3729.99662 1.68182e-17
3731.99962 1.65456e-17
3734.00261 1.66806e-17
3735.99560 1.67550e-17
3737.99860 1.65633e-17
3740.00160 1.63359e-17
3742.00460 1.65870e-17
3743.99759 1.63885e-17
3746.00059 1.65668e-17
3748.00358 1.68256e-17
3749.99657 1.66817e-17
3751.99957 1.63914e-17
3754.00257 1.64843e-17
3755.99555 1.65435e-17
3757.99856 1.62094e-17
3760.00156 1.64261e-17
3762.00455 1.63977e-17
3763.99754 1.66762e-17
3766.00054 1.60395e-17
3768.00354 1.62813e-17
3769.99653 1.61644e-17
3771.99953 1.69148e-17
3774.00253 1.63485e-17
3775.99551 1.64441e-17
3777.99851 1.62789e-17
3780.00151 1.63337e-17
3782.00451 1.66678e-17
3783.99750 1.64957e-17
3786.00050 1.67121e-17
3788.00349 1.65462e-17
3789.99648 1.65064e-17
3791.99948 1.69020e-17
3794.00248 1.70591e-17
3795.99546 1.67572e-17
3797.99847 1.69134e-17
3800.00147 1.71449e-17
3802.00446 1.73752e-17
3803.99745 1.75466e-17
3806.00045 1.72148e-17
3808.00345 1.71844e-17
3809.99644 1.74539e-17
3811.99944 1.75268e-17
3814.00244 1.73651e-17
3815.99542 1.78568e-17
3817.99842 1.76722e-17
3820.00142 1.78857e-17
3822.00442 1.79131e-17
3823.99741 1.78371e-17
3826.00041 1.80823e-17
3828.00341 1.82780e-17
3829.99639 1.81822e-17
3831.99939 1.81741e-17
3834.00239 1.81143e-17
3835.99538 1.77255e-17
3837.99838 1.80466e-17
3840.00138 1.85711e-17
3842.00438 1.84826e-17
3843.99736 1.85973e-17
3846.00036 1.85625e-17
3848.00336 1.88263e-17
3849.99635 1.88826e-17
3851.99935 1.91202e-17
3854.00235 1.90969e-17
3855.99533 1.91669e-17
3857.99833 1.90409e-17
3860.00133 1.88516e-17
3862.00433 1.91750e-17
3863.99732 1.93141e-17
3866.00032 1.93764e-17
3868.00332 1.95357e-17
3869.99630 1.97075e-17
3871.99930 1.93001e-17
3874.00230 1.92475e-17
3875.99529 1.96019e-17
3877.99829 1.93776e-17
3880.00129 1.96707e-17
3882.00429 1.98376e-17
3883.99727 1.95734e-17
3886.00027 1.96303e-17
3888.00327 1.96458e-17
3889.99626 1.96278e-17
3891.99926 1.96494e-17
3894.00226 1.96233e-17
3895.99524 1.97476e-17
3897.99824 2.02949e-17
3900.00124 2.00942e-17
3902.00424 2.03313e-17
3903.99723 2.03263e-17
3906.00023 2.00872e-17
3908.00323 2.03674e-17
3909.99621 2.01459e-17
3911.99921 2.00537e-17
3914.00221 2.04198e-17
3915.99520 2.04495e-17
3917.99820 2.02203e-17
3920.00120 2.04002e-17
3922.00420 1.97917e-17
3923.99718 1.99902e-17
3926.00018 2.02291e-17
3928.00318 2.01721e-17
3929.99617 2.01503e-17
3931.99917 1.92240e-17
3934.00217 1.94939e-17
3935.99515 1.99161e-17
3937.99815 1.99146e-17
3940.00115 1.91701e-17
3942.00415 1.96140e-17
3943.99714 1.99217e-17
3946.00014 1.99324e-17
3948.00314 1.99722e-17
3949.99612 2.00725e-17
3951.99912 1.97138e-17
3954.00212 1.99362e-17
3955.99511 2.02111e-17
3957.99811 2.02331e-17
3960.00111 2.01165e-17
3962.00411 2.00246e-17
3963.99709 2.02956e-17
3966.00009 1.97415e-17
3968.00309 1.91644e-17
3969.99608 1.96652e-17
3971.99908 1.92644e-17
3974.00208 1.92185e-17
3975.99506 1.90720e-17
3977.99806 1.91454e-17
3980.00106 1.95388e-17
3982.00406 1.93997e-17
3983.99705 1.93164e-17
3986.00005 1.90337e-17
3988.00305 1.91775e-17
3989.99603 1.93822e-17
3991.99903 1.91184e-17
3994.00203 1.93630e-17
3995.99502 1.91421e-17
3997.99802 1.91746e-17
4000.00102 1.94221e-17
4002.00402 1.93330e-17
4003.99700 1.87235e-17
4006.00000 1.87054e-17
4008.00300 1.90154e-17
4009.99599 1.89968e-17
4011.99899 1.91358e-17
4014.00198 1.89166e-17
4015.99497 1.90336e-17
4017.99797 1.87871e-17
4020.00097 1.88005e-17
4022.00397 1.88544e-17
4023.99696 1.93769e-17
4025.99996 1.87535e-17
4028.00295 1.84351e-17
4029.99594 1.88726e-17
4031.99894 1.87111e-17
4034.00194 1.90306e-17
4036.00494 1.85059e-17
4037.99793 1.82533e-17
4040.00092 1.84441e-17
4042.00392 1.84301e-17
4043.99691 1.82427e-17
4045.99991 1.79746e-17
4048.00291 1.80925e-17
4049.99590 1.82112e-17
4051.99890 1.77889e-17
4054.00189 1.77621e-17
4056.00490 1.77500e-17
4057.99788 1.77672e-17
4060.00088 1.75188e-17
4062.00388 1.75423e-17
4063.99687 1.74592e-17
4065.99987 1.72807e-17
4068.00286 1.75756e-17
4069.99585 1.74904e-17
4071.99885 1.74043e-17
4074.00185 1.70306e-17
4076.00485 1.69281e-17
4077.99784 1.70238e-17
4080.00084 1.67856e-17
4082.00383 1.67486e-17
4083.99682 1.69721e-17
4085.99982 1.65344e-17
4088.00282 1.68747e-17
4089.99581 1.67510e-17
4091.99881 1.67112e-17
4094.00181 1.65337e-17
4096.00481 1.64816e-17
4097.99779 1.65230e-17
4100.00079 1.63597e-17
4102.00379 1.64253e-17
4103.99678 1.60985e-17
4105.99978 1.62954e-17
4108.00278 1.61899e-17
4109.99576 1.61601e-17
4111.99876 1.61618e-17
4114.00176 1.59308e-17
4115.99474 1.62542e-17
4117.99775 1.59444e-17
4120.00075 1.61640e-17
4122.00374 1.60645e-17
4123.99673 1.58876e-17
4125.99973 1.58506e-17
4128.00273 1.57681e-17
4129.99572 1.58428e-17
4131.99872 1.59967e-17
4134.00172 1.59473e-17
4136.00472 1.57542e-17
4137.99770 1.59829e-17
4140.00070 1.56637e-17
4142.00370 1.57952e-17
4143.99669 1.58592e-17
4145.99968 1.58983e-17
4148.00269 1.56623e-17
4149.99567 1.57581e-17
4151.99867 1.56457e-17
4154.00167 1.56708e-17
4156.00467 1.58088e-17
4157.99766 1.58922e-17
4160.00066 1.60498e-17
4162.00366 1.58342e-17
4163.99664 1.58735e-17
4165.99964 1.58860e-17
4168.00264 1.55603e-17
4169.99563 1.57982e-17
4171.99863 1.60661e-17
4174.00162 1.56352e-17
4176.00463 1.59599e-17
4177.99761 1.60911e-17
4180.00061 1.60891e-17
4182.00361 1.64037e-17
4183.99659 1.63424e-17
4185.99960 1.63343e-17
4188.00259 1.60768e-17
4189.99558 1.63465e-17
4191.99858 1.63729e-17
4194.00158 1.66172e-17
4196.00458 1.63021e-17
4197.99757 1.63998e-17
4200.00057 1.69215e-17
4202.00356 1.69182e-17
4203.99655 1.66386e-17
4205.99955 1.66184e-17
4208.00255 1.69762e-17
4209.99554 1.69664e-17
4211.99853 1.67488e-17
4214.00153 1.68037e-17
4216.00454 1.69546e-17
4217.99752 1.71569e-17
4220.00052 1.72424e-17
4222.00352 1.72155e-17
4223.99651 1.70402e-17
4225.99951 1.74644e-17
4228.00251 1.70355e-17
4229.99549 1.71507e-17
4231.99849 1.73402e-17
4234.00149 1.76240e-17
4236.00449 1.73209e-17
4237.99748 1.73580e-17
4240.00047 1.73821e-17
4242.00347 1.74472e-17
4243.99646 1.72685e-17
4245.99946 1.70671e-17
4248.00246 1.74252e-17
4249.99545 1.76390e-17
4251.99845 1.73050e-17
4254.00145 1.74000e-17
4256.00445 1.74538e-17
4257.99743 1.75478e-17
4260.00043 1.74202e-17
4262.00343 1.71255e-17
4263.99641 1.72576e-17
4265.99942 1.72170e-17
4268.00241 1.75649e-17
4269.99540 1.74269e-17
4271.99840 1.74121e-17
4274.00140 1.71872e-17
4276.00440 1.73092e-17
4277.99739 1.72650e-17
4280.00039 1.72694e-17
4282.00338 1.72210e-17
4283.99637 1.72019e-17
4285.99937 1.68854e-17
4288.00237 1.68285e-17
4289.99536 1.71061e-17
4291.99835 1.70132e-17
4294.00136 1.71523e-17
4296.00436 1.69666e-17
4297.99734 1.72824e-17
4300.00034 1.71044e-17
4302.00334 1.70361e-17
4303.99633 1.68148e-17
4305.99933 1.68110e-17
4308.00233 1.69916e-17
4309.99531 1.69453e-17
4311.99831 1.67603e-17
4314.00131 1.68907e-17
4316.00431 1.66539e-17
4317.99730 1.67669e-17
4320.00029 1.66027e-17
4322.00330 1.68797e-17
4323.99628 1.69377e-17
4325.99928 1.67105e-17
4328.00228 1.65571e-17
4329.99527 1.64974e-17
4331.99827 1.65799e-17
4334.00127 1.65972e-17
4336.00427 1.67830e-17
4337.99725 1.65338e-17
4340.00025 1.66846e-17
4342.00325 1.67533e-17
4343.99623 1.65268e-17
4345.99924 1.63196e-17
4348.00223 1.64115e-17
4349.99522 1.62608e-17
4351.99822 1.64483e-17
4354.00122 1.65029e-17
4356.00422 1.64858e-17
4357.99721 1.64923e-17
4360.00021 1.64541e-17
4362.00321 1.67226e-17
4363.99619 1.66548e-17
4365.99919 1.65835e-17
4368.00219 1.66089e-17
4369.99518 1.65018e-17
4371.99817 1.67472e-17
4374.00118 1.68720e-17
4376.00418 1.65804e-17
4377.99716 1.68763e-17
4380.00016 1.67916e-17
4382.00316 1.69685e-17
4383.99615 1.68845e-17
4385.99915 1.68615e-17
4388.00215 1.68526e-17
4389.99513 1.70731e-17
4391.99813 1.70966e-17
4394.00113 1.72061e-17
4396.00413 1.74180e-17
4397.99712 1.69191e-17
4400.00011 1.71621e-17
4402.00312 1.75606e-17
4403.99610 1.72614e-17
4405.99910 1.72399e-17
4408.00210 1.73495e-17
4410.00510 1.74707e-17
4411.99809 1.75322e-17
4414.00109 1.74868e-17
4416.00409 1.76207e-17
4417.99707 1.77244e-17
4420.00007 1.79137e-17
4422.00307 1.79684e-17
4423.99606 1.82352e-17
4425.99906 1.81218e-17
4428.00205 1.82454e-17
4429.99504 1.77822e-17
4431.99804 1.79926e-17
4434.00104 1.80511e-17
4436.00404 1.82722e-17
4437.99703 1.83132e-17
4440.00003 1.82969e-17
4442.00303 1.82480e-17
4443.99601 1.86909e-17
4445.99901 1.85157e-17
4448.00201 1.83464e-17
4449.99500 1.83899e-17
4451.99800 1.86717e-17
4454.00100 1.86415e-17
4456.00400 1.85473e-17
4457.99698 1.89617e-17
4459.99998 1.86557e-17
4462.00298 1.87979e-17
4463.99597 1.90697e-17
4465.99897 1.90287e-17
4468.00197 1.91172e-17
4470.00497 1.90043e-17
4471.99795 1.89294e-17
4474.00095 1.90389e-17
4476.00395 1.90381e-17
4477.99694 1.91147e-17
4479.99993 1.89048e-17
4482.00294 1.92142e-17
4483.99592 1.90208e-17
4485.99892 1.90851e-17
4488.00192 1.88989e-17
4489.99491 1.90387e-17
4491.99791 1.89911e-17
4494.00091 1.91096e-17
4496.00391 1.92625e-17
4497.99689 1.90014e-17
4499.99989 1.89993e-17
4502.00289 1.90737e-17
4503.99588 1.89681e-17
4505.99888 1.88625e-17
4508.00187 1.87543e-17
4510.00488 1.86405e-17
4511.99786 1.86266e-17
4514.00086 1.86795e-17
4516.00386 1.83597e-17
4517.99684 1.86948e-17
4519.99984 1.83629e-17
4522.00284 1.81994e-17
4523.99583 1.84507e-17
4525.99883 1.80256e-17
4528.00183 1.81230e-17
4530.00483 1.80959e-17
4531.99782 1.81833e-17
4534.00082 1.79324e-17
4536.00382 1.76615e-17
4537.99680 1.75077e-17
4539.99980 1.76604e-17
4542.00280 1.75759e-17
4543.99579 1.75196e-17
4545.99878 1.77483e-17
4548.00178 1.77153e-17
4550.00479 1.73433e-17
4551.99777 1.72460e-17
4554.00077 1.68724e-17
4556.00377 1.71071e-17
4557.99676 1.70455e-17
4559.99976 1.67979e-17
4562.00276 1.66125e-17
4563.99574 1.67014e-17
4565.99874 1.67173e-17
4568.00174 1.66523e-17
4570.00474 1.62954e-17
4571.99773 1.65477e-17
4574.00072 1.62246e-17
4576.00372 1.63775e-17
4577.99671 1.62420e-17
4579.99971 1.62845e-17
4582.00271 1.62784e-17
4583.99570 1.63977e-17
4585.99870 1.59731e-17
4588.00169 1.59322e-17
4590.00470 1.59738e-17
4591.99768 1.59397e-17
4594.00068 1.57238e-17
4596.00368 1.58595e-17
4597.99666 1.56114e-17
4599.99967 1.54658e-17
4602.00266 1.57982e-17
4603.99565 1.55700e-17
4605.99865 1.55657e-17
4608.00165 1.54676e-17
4610.00465 1.55015e-17
4611.99764 1.54061e-17
4614.00064 1.54800e-17
4616.00364 1.52346e-17
4617.99662 1.53602e-17
4619.99962 1.54572e-17
4622.00262 1.54043e-17
4623.99561 1.53906e-17
4625.99860 1.53430e-17
4628.00161 1.53078e-17
4630.00461 1.53000e-17
4631.99759 1.53937e-17
4634.00059 1.54044e-17
4636.00359 1.53541e-17
4637.99658 1.54375e-17
4639.99958 1.53869e-17
4642.00258 1.56527e-17
4643.99556 1.53199e-17
4645.99856 1.53459e-17
4648.00156 1.55069e-17
4650.00456 1.52923e-17
4651.99755 1.55691e-17
4654.00054 1.55051e-17
4656.00354 1.53641e-17
4657.99653 1.56117e-17
4659.99953 1.55636e-17
4662.00253 1.54450e-17
4663.99552 1.54959e-17
4665.99852 1.57313e-17
4668.00152 1.56080e-17
4670.00452 1.56429e-17
4671.99750 1.56638e-17
4674.00050 1.56167e-17
4676.00350 1.55858e-17
4677.99648 1.56264e-17
4679.99949 1.59895e-17
4682.00248 1.55870e-17
4683.99547 1.57690e-17
4685.99847 1.58782e-17
4688.00147 1.57128e-17
4690.00447 1.58210e-17
4691.99746 1.58807e-17
4694.00046 1.58665e-17
4696.00346 1.57216e-17
4697.99644 1.61218e-17
4699.99944 1.59696e-17
4702.00244 1.60231e-17
4703.99543 1.62107e-17
4705.99842 1.60206e-17
4708.00143 1.61413e-17
4710.00443 1.62539e-17
4711.99741 1.63242e-17
4714.00041 1.65909e-17
4716.00341 1.64737e-17
4717.99640 1.64980e-17
4719.99940 1.64895e-17
4722.00240 1.67363e-17
4723.99538 1.69771e-17
4725.99838 1.66823e-17
4728.00138 1.68237e-17
4730.00438 1.68022e-17
4731.99737 1.67664e-17
4734.00036 1.68384e-17
4736.00337 1.68565e-17
4737.99635 1.71552e-17
4739.99935 1.71329e-17
4742.00235 1.70260e-17
4743.99534 1.70110e-17
4745.99834 1.70891e-17
4748.00134 1.73092e-17
4750.00434 1.73364e-17
4751.99732 1.75733e-17
4754.00032 1.71876e-17
4756.00332 1.75832e-17
4757.99631 1.73647e-17
4759.99931 1.74950e-17
4762.00230 1.72046e-17
4763.99529 1.74489e-17
4765.99829 1.74725e-17
4768.00129 1.74327e-17
4770.00429 1.73973e-17
4771.99728 1.74957e-17
4774.00028 1.73695e-17
4776.00328 1.75890e-17
4777.99626 1.74700e-17
4779.99926 1.75749e-17
4782.00226 1.76060e-17
4783.99525 1.75902e-17
4785.99824 1.73990e-17
4788.00125 1.75253e-17
4790.00425 1.76558e-17
4791.99723 1.77303e-17
4794.00023 1.73992e-17
4796.00323 1.74747e-17
4797.99622 1.75291e-17
4799.99922 1.77808e-17
4802.00222 1.77614e-17
4803.99520 1.75399e-17
4805.99820 1.78518e-17
4808.00120 1.78892e-17
4810.00420 1.78044e-17
4811.99719 1.79432e-17
4814.00018 1.78866e-17
4816.00319 1.80372e-17
4817.99617 1.80947e-17
4819.99917 1.81492e-17
4822.00217 1.77860e-17
4823.99516 1.77178e-17
4825.99816 1.78867e-17
4828.00116 1.80118e-17
4830.00416 1.79432e-17
4831.99714 1.81229e-17
4834.00014 1.80078e-17
4836.00314 1.80181e-17
4837.99613 1.76476e-17
4839.99913 1.77158e-17
4842.00212 1.78163e-17
4843.99511 1.76270e-17
4845.99811 1.77276e-17
4848.00111 1.78243e-17
4850.00411 1.77017e-17
4851.99709 1.76965e-17
4854.00009 1.76995e-17
4856.00310 1.75181e-17
4857.99608 1.76742e-17
4859.99908 1.75468e-17
4862.00208 1.75432e-17
4863.99507 1.75300e-17
4865.99807 1.75665e-17
4868.00107 1.74362e-17
4870.00407 1.74193e-17
4871.99705 1.75499e-17
4874.00005 1.72292e-17
4876.00305 1.72742e-17
4877.99604 1.72997e-17
4879.99903 1.73769e-17
4882.00203 1.73430e-17
4884.00504 1.70815e-17
4885.99802 1.70993e-17
4888.00102 1.69632e-17
4890.00402 1.69971e-17
4891.99701 1.70331e-17
4894.00001 1.69300e-17
4896.00301 1.71274e-17
4897.99599 1.69993e-17
4899.99899 1.69996e-17
4902.00199 1.67717e-17
4903.99497 1.67337e-17
4905.99798 1.65479e-17
4908.00097 1.65038e-17
4910.00397 1.67627e-17
4911.99696 1.65320e-17
4913.99996 1.65819e-17
4916.00296 1.66088e-17
4917.99595 1.66079e-17
4919.99895 1.65530e-17
4922.00194 1.64312e-17
4923.99493 1.62927e-17
4925.99793 1.65234e-17
4928.00093 1.64565e-17
4930.00393 1.64403e-17
4931.99691 1.63187e-17
4933.99992 1.62372e-17
4936.00292 1.62389e-17
4937.99590 1.62051e-17
4939.99890 1.64023e-17
4942.00190 1.60316e-17
4944.00490 1.63292e-17
4945.99789 1.60426e-17
4948.00089 1.59964e-17
4950.00389 1.62074e-17
4951.99687 1.61772e-17
4953.99987 1.59281e-17
4956.00287 1.59832e-17
4957.99586 1.56791e-17
4959.99885 1.57611e-17
4962.00186 1.59043e-17
4963.99484 1.57462e-17
4965.99784 1.56192e-17
4968.00084 1.57858e-17
4970.00384 1.59955e-17
4971.99683 1.58756e-17
4973.99983 1.57745e-17
4976.00283 1.57825e-17
4977.99581 1.58439e-17
4979.99881 1.57277e-17
4982.00181 1.57464e-17
4984.00481 1.55948e-17
4985.99780 1.56206e-17
4988.00079 1.56660e-17
4990.00379 1.55538e-17
4991.99678 1.57714e-17
4993.99978 1.56533e-17
4996.00278 1.56540e-17
4997.99577 1.55004e-17
4999.99877 1.56379e-17
5002.00177 1.56794e-17
5004.00477 1.54683e-17
5005.99775 1.54599e-17
5008.00075 1.55815e-17
5010.00375 1.54975e-17
5011.99673 1.55692e-17
5013.99974 1.57174e-17
5016.00274 1.55846e-17
5017.99572 1.55456e-17
5019.99872 1.57644e-17
5022.00172 1.55901e-17
5024.00472 1.56936e-17
5025.99771 1.54954e-17
5028.00071 1.56653e-17
5030.00371 1.53309e-17
5031.99669 1.56149e-17
5033.99969 1.55784e-17
5036.00269 1.58027e-17
5037.99568 1.56065e-17
5039.99867 1.57742e-17
5042.00168 1.56416e-17
5044.00468 1.56270e-17
5045.99766 1.55841e-17
5048.00066 1.53920e-17
5050.00366 1.56636e-17
5051.99665 1.57026e-17
5053.99965 1.55859e-17
5056.00265 1.55775e-17
5057.99563 1.57299e-17
5059.99863 1.56374e-17
5062.00163 1.58876e-17
5064.00463 1.56205e-17
5065.99762 1.54635e-17
5068.00061 1.57309e-17
5070.00362 1.53741e-17
5071.99660 1.56695e-17
5073.99960 1.56942e-17
5076.00260 1.56893e-17
5077.99559 1.56189e-17
5079.99859 1.57200e-17
5082.00159 1.56225e-17
5084.00459 1.57867e-17
5085.99757 1.59133e-17
5088.00057 1.57528e-17
5090.00357 1.57159e-17
5091.99656 1.56847e-17
5093.99956 1.56289e-17
5096.00256 1.57110e-17
5097.99554 1.55228e-17
5099.99854 1.57063e-17
5102.00154 1.57512e-17
5104.00454 1.57914e-17
5105.99753 1.56200e-17
5108.00053 1.56897e-17
5110.00353 1.58109e-17
5111.99651 1.55399e-17
5113.99951 1.57555e-17
5116.00251 1.58114e-17
5117.99550 1.56823e-17
5119.99849 1.56418e-17
5122.00150 1.56103e-17
5124.00450 1.58989e-17
5125.99748 1.57677e-17
5128.00048 1.59552e-17
5130.00348 1.60221e-17
5131.99647 1.56963e-17
5133.99947 1.57982e-17
5136.00247 1.57696e-17
5137.99545 1.58427e-17
5139.99845 1.58598e-17
5142.00145 1.60887e-17
5144.00445 1.58162e-17
5145.99744 1.58713e-17
5148.00043 1.58477e-17
5150.00344 1.59307e-17
5151.99642 1.58379e-17
5153.99942 1.58799e-17
5156.00242 1.59834e-17
5157.99541 1.59568e-17
5159.99841 1.58552e-17
5162.00141 1.59869e-17
5164.00441 1.58931e-17
5165.99739 1.56922e-17
5168.00039 1.58798e-17
5170.00339 1.59566e-17
5171.99638 1.58141e-17
5173.99938 1.57144e-17
5176.00238 1.60170e-17
5177.99536 1.59496e-17
5179.99836 1.60248e-17
5182.00136 1.56913e-17
5184.00436 1.57951e-17
5185.99734 1.57511e-17
5188.00034 1.59132e-17
5190.00335 1.58799e-17
5191.99633 1.55925e-17
5193.99933 1.56972e-17
5196.00233 1.58215e-17
5197.99532 1.57472e-17
5199.99832 1.60294e-17
5202.00132 1.58147e-17
5204.00432 1.57212e-17
5205.99730 1.52479e-17
5208.00030 1.56314e-17
5210.00330 1.56716e-17
5211.99629 1.57390e-17
5213.99928 1.56333e-17
5216.00228 1.58733e-17
5217.99527 1.55817e-17
5219.99827 1.55439e-17
5222.00127 1.54424e-17
5224.00427 1.56172e-17
5225.99726 1.56191e-17
5228.00025 1.54823e-17
5230.00326 1.57038e-17
5231.99624 1.55543e-17
5233.99924 1.51995e-17
5236.00224 1.54165e-17
5237.99522 1.55660e-17
5239.99823 1.54252e-17
5242.00122 1.52434e-17
5244.00422 1.49705e-17
5245.99721 1.54418e-17
5248.00021 1.53361e-17
5250.00321 1.53014e-17
5251.99620 1.53330e-17
5253.99920 1.52663e-17
5256.00220 1.50450e-17
5257.99518 1.53319e-17
5259.99818 1.50463e-17
5262.00118 1.49884e-17
5264.00418 1.51753e-17
5265.99716 1.50166e-17
5268.00017 1.48934e-17
5270.00317 1.48422e-17
5271.99615 1.52374e-17
5273.99915 1.49607e-17
5276.00215 1.50626e-17
5277.99514 1.48687e-17
5279.99814 1.50908e-17
5282.00114 1.49462e-17
5284.00414 1.47395e-17
5285.99712 1.47361e-17
5288.00012 1.48740e-17
5290.00312 1.47148e-17
5291.99611 1.48624e-17
5293.99910 1.48456e-17
5296.00210 1.48507e-17
5297.99509 1.46661e-17
5299.99809 1.45296e-17
5302.00109 1.45568e-17
5304.00409 1.45149e-17
5305.99708 1.46783e-17
5308.00008 1.47993e-17
5310.00308 1.47728e-17
5311.99606 1.47100e-17
5313.99906 1.46609e-17
5316.00206 1.43516e-17
5317.99504 1.46721e-17
5319.99805 1.42861e-17
5322.00104 1.42850e-17
5324.00404 1.43850e-17
5325.99703 1.46617e-17
5328.00003 1.43985e-17
5330.00303 1.43555e-17
5331.99602 1.45841e-17
5333.99902 1.43933e-17
5336.00202 1.45380e-17
5337.99500 1.43451e-17
5339.99800 1.41772e-17
5342.00100 1.42030e-17
5344.00400 1.43110e-17
5345.99698 1.42538e-17
5347.99999 1.43543e-17
5350.00299 1.40781e-17
5351.99597 1.42020e-17
5353.99897 1.41791e-17
5356.00197 1.42912e-17
5358.00497 1.39848e-17
5359.99796 1.37998e-17
5362.00096 1.40128e-17
5364.00396 1.38878e-17
5365.99694 1.39800e-17
5367.99994 1.40149e-17
5370.00294 1.41148e-17
5371.99593 1.39005e-17
5373.99892 1.39067e-17
5376.00193 1.39101e-17
5377.99491 1.37170e-17
5379.99791 1.37689e-17
5382.00091 1.36687e-17
5384.00391 1.37290e-17
5385.99690 1.36036e-17
5387.99990 1.37326e-17
5390.00290 1.35860e-17
5391.99588 1.36061e-17
5393.99888 1.36187e-17
5396.00188 1.36819e-17
5398.00488 1.33422e-17
5399.99787 1.32704e-17
5402.00086 1.33750e-17
5404.00387 1.34444e-17
5405.99685 1.31932e-17
5407.99985 1.34429e-17
5410.00285 1.33674e-17
5411.99584 1.32698e-17
5413.99884 1.31237e-17
5416.00184 1.31480e-17
5418.00484 1.33603e-17
5419.99782 1.31797e-17
5422.00082 1.31765e-17
5424.00382 1.30047e-17
5425.99680 1.31954e-17
5427.99981 1.31315e-17
5430.00281 1.29115e-17
5431.99579 1.28527e-17
5433.99879 1.29934e-17
5436.00179 1.29979e-17
5437.99478 1.28698e-17
5439.99778 1.26091e-17
5442.00078 1.28797e-17
5444.00378 1.33078e-17
5445.99676 1.31868e-17
5447.99976 1.29510e-17
5450.00276 1.22535e-17
5451.99575 1.18840e-17
5453.99874 1.22070e-17
5456.00175 1.19947e-17
5458.00475 1.32615e-17
5459.99773 1.26076e-17
5462.00073 1.25490e-17
5464.00373 1.17680e-17
5465.99672 1.20819e-17
5467.99972 1.19423e-17
5470.00272 1.22193e-17
5471.99570 1.20542e-17
5473.99870 1.23175e-17
5476.00170 1.18040e-17
5478.00470 1.18174e-17
5479.99769 1.11524e-17
5482.00068 1.22509e-17
5484.00369 1.21312e-17
5485.99667 1.16527e-17
5487.99967 1.18423e-17
5490.00267 1.19927e-17
5491.99566 1.21286e-17
5493.99866 1.17416e-17
5496.00166 1.15599e-17
5498.00466 1.12746e-17
5499.99764 1.18241e-17
5502.00064 1.21220e-17
5504.00364 1.17554e-17
5505.99663 1.12744e-17
5507.99963 1.20144e-17
5510.00263 1.19631e-17
5511.99561 1.20516e-17
5513.99861 1.16262e-17
5516.00161 1.13753e-17
5518.00461 1.19962e-17
5519.99759 1.20905e-17
5522.00059 1.18926e-17
5524.00360 1.19028e-17
5525.99658 1.23369e-17
5527.99958 1.18055e-17
5530.00258 1.20627e-17
5531.99557 1.18234e-17
5533.99857 1.19717e-17
5536.00157 1.21417e-17
5538.00457 1.17251e-17
5539.99755 1.22812e-17
5542.00055 1.22407e-17
5544.00355 1.18739e-17
5545.99654 1.15406e-17
5547.99953 1.18112e-17
5550.00253 1.16263e-17
5551.99552 1.15663e-17
5553.99852 1.16773e-17
5556.00152 1.15157e-17
5558.00452 1.12230e-17
5559.99751 1.18925e-17
5562.00050 1.15456e-17
5564.00351 1.15414e-17
5565.99649 1.21294e-17
5567.99949 1.16378e-17
5570.00249 1.15888e-17
5571.99547 1.20336e-17
5573.99848 1.18326e-17
5576.00148 1.16570e-17
5578.00447 1.12410e-17
5579.99746 1.15429e-17
5582.00046 1.14087e-17
5584.00346 1.17681e-17
5585.99645 1.16221e-17
5587.99945 1.16412e-17
5590.00245 1.17756e-17
5591.99543 1.20954e-17
5593.99843 1.19400e-17
5596.00143 1.14446e-17
5598.00443 1.17436e-17
5599.99741 1.16687e-17
5602.00042 1.20458e-17
5604.00342 1.19283e-17
5605.99640 1.16987e-17
5607.99940 1.15609e-17
5610.00240 1.16916e-17
5611.99539 1.18025e-17
5613.99839 1.14930e-17
5616.00139 1.15675e-17
5618.00439 1.14705e-17
5619.99737 1.19893e-17
5622.00037 1.18552e-17
5624.00337 1.17891e-17
5625.99636 1.20128e-17
5627.99935 1.19062e-17
5630.00235 1.17271e-17
5631.99534 1.22500e-17
5633.99834 1.18880e-17
5636.00134 1.22968e-17
5638.00434 1.21597e-17
5639.99733 1.20164e-17
5642.00033 1.18433e-17
5644.00333 1.20433e-17
5645.99631 1.19393e-17
5647.99931 1.22569e-17
5650.00231 1.21186e-17
5651.99529 1.20778e-17
5653.99830 1.20966e-17
5656.00130 1.20052e-17
5658.00429 1.19902e-17
5659.99728 1.22344e-17
5662.00028 1.21370e-17
5664.00328 1.24320e-17
5665.99627 1.21143e-17
5667.99927 1.18162e-17
5670.00227 1.19659e-17
5671.99525 1.23835e-17
5673.99825 1.25794e-17
5676.00125 1.22966e-17
5678.00425 1.20226e-17
5679.99723 1.20339e-17
5682.00024 1.20098e-17
5684.00324 1.22854e-17
5685.99622 1.24362e-17
5687.99922 1.19871e-17
5690.00222 1.22787e-17
5691.99521 1.20449e-17
5693.99821 1.23808e-17
5696.00121 1.18602e-17
5698.00421 1.23372e-17
5699.99719 1.23887e-17
5702.00019 1.22656e-17
5704.00319 1.22243e-17
5705.99618 1.25257e-17
5707.99917 1.23225e-17
5710.00218 1.21291e-17
5711.99516 1.23207e-17
5713.99816 1.23421e-17
5716.00116 1.22648e-17
5718.00416 1.22892e-17
5719.99715 1.22633e-17
5722.00015 1.22753e-17
5724.00315 1.24001e-17
5725.99613 1.21600e-17
5727.99913 1.23408e-17
5730.00213 1.23012e-17
5732.00513 1.19480e-17
5733.99812 1.17541e-17
5736.00112 1.19678e-17
5738.00411 1.23291e-17
5739.99710 1.24640e-17
5742.00010 1.24280e-17
5744.00310 1.22742e-17
5745.99609 1.23584e-17
5747.99909 1.21097e-17
5750.00209 1.22280e-17
5751.99507 1.22601e-17
5753.99807 1.21167e-17
5756.00107 1.25455e-17
5758.00407 1.20559e-17
5759.99705 1.22217e-17
5762.00006 1.24120e-17
5764.00306 1.24071e-17
5765.99604 1.24387e-17
5767.99904 1.24512e-17
5770.00204 1.21599e-17
5771.99503 1.21525e-17
5773.99803 1.22894e-17
5776.00103 1.25823e-17
5778.00403 1.23191e-17
5779.99701 1.22208e-17
5782.00001 1.23139e-17
5784.00301 1.22735e-17
5785.99600 1.22116e-17
5787.99899 1.21949e-17
5790.00200 1.22275e-17
5792.00500 1.20780e-17
5793.99798 1.21227e-17
5796.00098 1.22613e-17
5798.00398 1.20892e-17
5799.99697 1.23959e-17
5801.99997 1.23580e-17
5804.00297 1.23756e-17
5805.99595 1.20866e-17
5807.99895 1.21174e-17
5810.00195 1.25103e-17
5811.99494 1.23677e-17
5813.99794 1.23117e-17
5816.00094 1.23585e-17
5818.00394 1.23306e-17
5819.99692 1.24027e-17
5821.99992 1.23456e-17
5824.00292 1.24287e-17
5825.99591 1.24239e-17
5827.99891 1.22487e-17
5830.00191 1.22832e-17
5832.00491 1.20211e-17
5833.99789 1.23766e-17
5836.00089 1.26790e-17
5838.00389 1.27308e-17
5839.99688 1.22671e-17
5841.99988 1.23947e-17
5844.00288 1.22155e-17
5845.99586 1.22182e-17
5847.99886 1.22917e-17
5850.00186 1.21640e-17
5851.99485 1.20034e-17
5853.99784 1.23352e-17
5856.00084 1.23461e-17
5858.00385 1.20540e-17
5859.99683 1.22717e-17
5861.99983 1.21410e-17
5864.00283 1.22015e-17
5865.99582 1.23408e-17
5867.99881 1.22372e-17
5870.00182 1.21702e-17
5872.00482 1.19124e-17
5873.99780 1.23990e-17
5876.00080 1.24143e-17
5878.00380 1.20684e-17
5879.99679 1.20762e-17
5881.99978 1.22965e-17
5884.00278 1.20949e-17
5885.99577 1.17722e-17
5887.99877 1.17266e-17
5890.00177 1.17367e-17
5892.00477 1.16089e-17
5893.99776 1.18057e-17
5896.00076 1.18901e-17
5898.00376 1.20858e-17
5899.99674 1.17424e-17
5901.99974 1.17431e-17
5904.00274 1.19951e-17
5905.99572 1.20622e-17
5907.99873 1.20720e-17
5910.00173 1.17861e-17
5912.00472 1.17334e-17
5913.99771 1.20960e-17
5916.00071 1.18922e-17
5918.00371 1.19852e-17
5919.99670 1.18849e-17
5921.99970 1.19739e-17
5924.00270 1.17255e-17
5925.99568 1.18888e-17
5927.99868 1.18385e-17
5930.00168 1.20351e-17
5932.00468 1.20122e-17
5933.99766 1.17514e-17
5936.00066 1.16672e-17
5938.00367 1.17870e-17
5939.99665 1.17983e-17
5941.99965 1.15910e-17
5944.00265 1.17304e-17
5945.99564 1.17901e-17
5947.99864 1.21281e-17
5950.00164 1.18369e-17
5952.00464 1.19298e-17
5953.99762 1.16351e-17
5956.00062 1.18530e-17
5958.00362 1.16362e-17
5959.99661 1.18802e-17
5961.99960 1.19601e-17
5964.00260 1.17327e-17
5965.99559 1.16910e-17
5967.99859 1.16782e-17
5970.00159 1.17905e-17
5972.00459 1.16573e-17
5973.99758 1.16233e-17
5976.00058 1.15344e-17
5978.00358 1.15717e-17
5979.99656 1.17682e-17
5981.99956 1.18282e-17
5984.00256 1.16063e-17
5985.99554 1.17509e-17
5987.99855 1.15629e-17
5990.00155 1.13453e-17
5992.00454 1.17101e-17
5993.99753 1.16611e-17
5996.00053 1.15549e-17
5998.00353 1.16431e-17
5999.99652 1.14207e-17
6001.99952 1.14528e-17
6004.00252 1.14012e-17
6005.99550 1.16083e-17
6007.99850 1.15494e-17
6010.00150 1.15460e-17
6012.00450 1.15065e-17
6013.99748 1.15437e-17
6016.00049 1.14804e-17
6018.00349 1.13585e-17
6019.99647 1.16869e-17
6021.99947 1.13462e-17
6024.00247 1.12485e-17
6025.99546 1.12084e-17
6027.99846 1.13239e-17
6030.00146 1.11104e-17
6032.00446 1.14378e-17
6033.99744 1.13102e-17
6036.00044 1.13580e-17
6038.00344 1.10391e-17
6039.99643 1.13641e-17
6041.99942 1.15846e-17
6044.00243 1.13460e-17
6045.99541 1.14380e-17
6047.99841 1.12299e-17
6050.00141 1.10043e-17
6052.00441 1.12003e-17
6053.99740 1.13072e-17
6056.00040 1.11964e-17
6058.00340 1.11085e-17
6059.99638 1.12471e-17
6061.99938 1.11280e-17
6064.00238 1.12998e-17
6065.99536 1.11391e-17
6067.99837 1.11188e-17
6070.00137 1.11610e-17
6072.00436 1.11568e-17
6073.99735 1.11665e-17
6076.00035 1.11202e-17
6078.00335 1.10339e-17
6079.99634 1.08381e-17
6081.99934 1.11018e-17
6084.00234 1.10031e-17
6085.99532 1.09964e-17
6087.99832 1.14007e-17
6090.00132 1.09807e-17
6092.00432 1.08549e-17
6093.99730 1.09483e-17
6096.00031 1.09763e-17
6098.00331 1.13276e-17
6099.99629 1.11290e-17
6101.99929 1.09586e-17
6104.00229 1.10696e-17
6105.99528 1.09458e-17
6107.99828 1.09678e-17
6110.00128 1.07987e-17
6112.00428 1.08642e-17
6113.99726 1.08183e-17
6116.00026 1.11562e-17
6118.00326 1.07569e-17
6119.99625 1.06262e-17
6121.99924 1.06583e-17
6124.00225 1.06721e-17
6125.99523 1.03340e-17
6127.99823 1.08066e-17
6130.00123 1.07410e-17
6132.00423 1.03907e-17
6133.99722 1.05233e-17
6136.00022 1.05986e-17
6138.00322 1.04897e-17
6139.99620 1.08351e-17
6141.99920 1.05354e-17
6144.00220 1.03204e-17
6145.99519 1.04182e-17
6147.99819 1.03954e-17
6150.00119 1.02646e-17
6152.00419 1.04377e-17
6153.99717 1.05660e-17
6156.00017 1.03218e-17
6158.00317 1.04418e-17
6159.99616 1.04186e-17
6161.99916 1.02818e-17
6164.00216 1.05373e-17
6165.99514 1.03598e-17
6167.99814 1.02285e-17
6170.00114 1.02376e-17
6172.00414 1.03637e-17
6173.99713 1.02720e-17
6176.00013 1.04092e-17
6178.00313 1.02261e-17
6179.99611 1.02858e-17
6181.99911 1.03319e-17
6184.00211 1.01532e-17
6185.99510 1.03134e-17
6187.99809 1.00447e-17
6190.00109 1.02044e-17
6192.00410 1.01428e-17
6193.99708 1.02705e-17
6196.00008 1.03107e-17
6198.00308 1.01645e-17
6199.99607 1.04282e-17
6201.99906 1.06307e-17
6204.00207 1.03511e-17
6206.00507 1.02258e-17
6207.99805 1.05031e-17
6210.00105 1.05511e-17
6212.00405 1.05595e-17
6213.99704 1.06670e-17
6216.00004 1.07301e-17
6218.00303 1.06102e-17
6219.99602 1.04671e-17
6221.99902 1.04709e-17
6224.00202 1.04855e-17
6225.99501 1.05145e-17
6227.99801 1.06316e-17
6230.00101 1.05407e-17
6232.00401 1.05023e-17
6233.99699 1.04890e-17
6235.99999 1.05251e-17
6238.00299 1.05307e-17
6239.99597 1.07949e-17
6241.99898 1.06064e-17
6244.00198 1.07794e-17
6246.00497 1.08899e-17
6247.99796 1.08068e-17
6250.00096 1.10283e-17
6252.00396 1.11734e-17
6253.99695 1.11290e-17
6255.99995 1.12071e-17
6258.00295 1.10999e-17
6259.99593 1.13623e-17
6261.99893 1.13500e-17
6264.00193 1.11542e-17
6266.00493 1.12219e-17
6267.99791 1.13370e-17
6270.00091 1.15961e-17
6272.00392 1.15104e-17
6273.99690 1.14636e-17
6275.99990 1.17278e-17
6278.00290 1.14551e-17
6279.99589 1.16712e-17
6281.99889 1.17546e-17
6284.00189 1.16641e-17
6285.99487 1.19238e-17
6287.99787 1.20388e-17
6290.00087 1.21195e-17
6292.00387 1.19997e-17
6293.99686 1.21687e-17
6295.99986 1.21279e-17
6298.00285 1.21142e-17
6299.99584 1.21677e-17
6301.99884 1.21901e-17
6304.00184 1.23846e-17
6306.00484 1.24229e-17
6307.99783 1.22476e-17
6310.00083 1.24487e-17
6312.00383 1.25212e-17
6313.99681 1.23692e-17
6315.99981 1.25744e-17
6318.00281 1.29097e-17
6319.99579 1.28488e-17
6321.99880 1.27432e-17
6324.00180 1.26295e-17
6325.99478 1.27380e-17
6327.99778 1.28055e-17
6330.00078 1.27743e-17
6332.00378 1.28257e-17
6333.99677 1.27818e-17
6335.99977 1.28472e-17
6338.00277 1.29588e-17
6339.99575 1.27554e-17
6341.99875 1.29798e-17
6344.00175 1.30097e-17
6346.00475 1.33413e-17
6347.99773 1.31116e-17
6350.00074 1.30721e-17
6352.00374 1.31080e-17
6353.99672 1.31288e-17
6355.99972 1.33015e-17
6358.00272 1.31297e-17
6359.99571 1.33321e-17
6361.99871 1.33846e-17
6364.00171 1.33533e-17
6366.00471 1.35500e-17
6367.99769 1.34563e-17
6370.00069 1.34952e-17
6372.00369 1.32980e-17
6373.99668 1.36733e-17
6375.99968 1.35354e-17
6378.00267 1.37413e-17
6379.99566 1.38134e-17
6381.99866 1.36432e-17
6384.00166 1.37993e-17
6386.00466 1.38099e-17
6387.99765 1.37482e-17
6390.00065 1.39293e-17
6392.00365 1.34634e-17
6393.99663 1.38372e-17
6395.99963 1.39007e-17
6398.00263 1.37450e-17
6399.99561 1.38650e-17
6401.99862 1.39126e-17
6404.00162 1.39055e-17
6406.00461 1.39830e-17
6407.99760 1.37694e-17
6410.00060 1.38909e-17
6412.00360 1.40693e-17
6413.99659 1.42054e-17
6415.99959 1.41635e-17
6418.00259 1.42723e-17
6419.99557 1.41400e-17
6421.99857 1.43378e-17
6424.00157 1.44219e-17
6426.00457 1.42322e-17
6427.99755 1.44079e-17
6430.00056 1.45836e-17
6432.00356 1.45012e-17
6433.99654 1.43797e-17
6435.99954 1.43855e-17
6438.00254 1.43118e-17
6439.99553 1.43786e-17
6441.99853 1.43639e-17
6444.00153 1.43886e-17
6446.00453 1.42275e-17
6447.99751 1.44800e-17
6450.00051 1.42831e-17
6452.00351 1.45429e-17
6453.99650 1.43412e-17
6455.99950 1.42739e-17
6458.00250 1.43567e-17
6459.99548 1.44446e-17
6461.99848 1.45877e-17
6464.00148 1.44142e-17
6466.00448 1.41583e-17
6467.99747 1.40544e-17
6470.00047 1.41274e-17
6472.00347 1.41029e-17
6473.99645 1.43122e-17
6475.99945 1.40496e-17
6478.00245 1.40782e-17
6479.99544 1.44051e-17
6481.99844 1.40797e-17
6484.00144 1.42125e-17
6486.00444 1.43661e-17
6487.99742 1.42892e-17
6490.00042 1.42681e-17
6492.00342 1.43437e-17
6493.99641 1.42883e-17
6495.99941 1.41590e-17
6498.00241 1.44434e-17
6499.99539 1.42894e-17
6501.99839 1.44336e-17
6504.00139 1.45625e-17
6506.00439 1.43380e-17
6507.99737 1.39906e-17
6510.00038 1.40838e-17
6512.00338 1.42079e-17
6513.99636 1.43312e-17
6515.99936 1.40997e-17
6518.00236 1.38832e-17
6519.99535 1.40917e-17
6521.99834 1.40542e-17
6524.00134 1.39886e-17
6526.00435 1.42327e-17
6527.99733 1.42651e-17
6530.00033 1.41576e-17
6532.00333 1.39880e-17
6533.99632 1.40625e-17
6535.99932 1.39782e-17
6538.00232 1.37089e-17
6539.99530 1.38338e-17
6541.99830 1.36632e-17
6544.00130 1.38368e-17
6546.00430 1.37953e-17
6547.99729 1.38377e-17
6550.00029 1.38242e-17
6552.00328 1.38640e-17
6553.99627 1.35826e-17
6555.99927 1.35472e-17
6558.00227 1.34665e-17
6559.99526 1.35871e-17
6561.99826 1.35643e-17
6564.00126 1.36248e-17
6566.00426 1.37178e-17
6567.99724 1.33845e-17
6570.00024 1.36863e-17
6572.00324 1.35833e-17
6573.99622 1.31992e-17
6575.99922 1.32959e-17
6578.00223 1.30573e-17
6579.99521 1.32275e-17
6581.99821 1.33855e-17
6584.00121 1.32530e-17
6586.00421 1.32867e-17
6587.99720 1.32559e-17
6590.00020 1.32418e-17
6592.00320 1.31195e-17
6593.99618 1.30441e-17
6595.99918 1.29379e-17
6598.00218 1.29187e-17
6599.99517 1.31002e-17
6601.99816 1.26709e-17
6604.00116 1.27761e-17
6606.00417 1.28254e-17
6607.99715 1.27281e-17
6610.00015 1.29117e-17
6612.00315 1.29708e-17
6613.99614 1.27634e-17
6615.99914 1.26948e-17
6618.00214 1.26868e-17
6619.99512 1.25152e-17
6621.99812 1.27195e-17
6624.00112 1.26239e-17
6626.00412 1.27753e-17
6627.99711 1.25309e-17
6630.00011 1.27240e-17
6632.00310 1.28848e-17
6633.99609 1.25784e-17
6635.99909 1.24879e-17
6638.00209 1.24391e-17
6639.99508 1.25124e-17
6641.99808 1.25782e-17
6644.00108 1.23871e-17
6646.00408 1.24187e-17
6647.99706 1.22164e-17
6650.00006 1.22585e-17
6652.00306 1.23538e-17
6653.99604 1.19949e-17
6655.99905 1.22128e-17
6658.00205 1.20574e-17
6659.99503 1.19837e-17
6661.99803 1.20290e-17
6664.00103 1.18615e-17
6666.00403 1.21554e-17
6667.99702 1.19434e-17
6670.00002 1.19225e-17
6672.00302 1.19755e-17
6673.99600 1.20553e-17
6675.99900 1.19490e-17
6678.00200 1.17995e-17
6680.00500 1.17060e-17
6681.99798 1.16581e-17
6684.00099 1.18138e-17
6686.00399 1.17282e-17
6687.99697 1.17088e-17
6689.99997 1.17295e-17
6692.00297 1.16190e-17
6693.99596 1.16099e-17
6695.99896 1.15636e-17
6698.00196 1.16925e-17
6699.99494 1.14983e-17
6701.99794 1.15550e-17
6704.00094 1.14819e-17
6706.00394 1.15527e-17
6707.99693 1.14350e-17
6709.99993 1.13926e-17
6712.00292 1.13227e-17
6713.99591 1.14022e-17
6715.99891 1.11631e-17
6718.00191 1.13280e-17
6720.00491 1.14020e-17
6721.99790 1.11720e-17
6724.00090 1.10884e-17
6726.00390 1.09832e-17
6727.99688 1.11277e-17
6729.99988 1.11154e-17
6732.00288 1.09260e-17
6733.99586 1.08334e-17
6735.99887 1.10293e-17
6738.00187 1.10282e-17
6740.00486 1.07842e-17
6741.99785 1.08985e-17
6744.00085 1.08197e-17
6746.00385 1.08648e-17
6747.99684 1.08764e-17
6749.99984 1.08741e-17
6752.00284 1.09700e-17
6753.99582 1.09909e-17
6755.99882 1.07764e-17
6758.00182 1.06408e-17
6760.00482 1.06592e-17
6761.99780 1.06743e-17
6764.00081 1.07424e-17
6766.00381 1.07329e-17
6767.99679 1.07649e-17
6769.99979 1.06168e-17
6772.00279 1.07080e-17
6773.99578 1.06299e-17
6775.99878 1.05172e-17
6778.00178 1.05702e-17
6780.00478 1.05958e-17
6781.99776 1.06810e-17
6784.00076 1.06381e-17
6786.00376 1.04642e-17
6787.99675 1.04576e-17
6789.99975 1.04986e-17
6792.00275 1.04517e-17
6793.99573 1.05297e-17
6795.99873 1.02686e-17
6798.00173 1.03548e-17
6800.00473 1.03104e-17
6801.99772 1.03980e-17
6804.00072 1.04072e-17
6806.00372 1.02288e-17
6807.99670 1.04295e-17
6809.99970 1.02509e-17
6812.00270 1.02093e-17
6813.99569 1.02863e-17
6815.99869 1.00375e-17
6818.00169 1.01516e-17
6820.00469 1.00256e-17
6821.99767 9.93337e-18
6824.00067 1.00217e-17
6826.00367 1.02188e-17
6827.99666 1.02077e-17
6829.99966 1.00417e-17
6832.00266 1.00952e-17
6833.99564 1.02097e-17
6835.99864 9.98070e-18
6838.00164 9.98227e-18
6840.00464 9.92350e-18
6841.99762 9.99049e-18
6844.00063 9.91704e-18
6846.00363 9.88136e-18
6847.99661 9.88760e-18
6849.99961 9.77652e-18
6852.00261 9.80857e-18
6853.99560 9.88528e-18
6855.99860 9.99058e-18
6858.00159 9.83208e-18
6860.00460 9.82731e-18
6861.99758 9.85500e-18
6864.00058 9.81132e-18
6866.00358 9.58435e-18
6867.99657 9.74747e-18
6869.99957 9.67649e-18
6872.00257 9.78601e-18
6873.99555 9.72432e-18
6875.99855 9.81081e-18
6878.00155 9.60823e-18
6880.00455 9.64113e-18
6881.99754 9.51081e-18
6884.00054 9.57312e-18
6886.00353 9.47995e-18
6887.99652 9.45581e-18
6889.99952 9.61468e-18
6892.00252 9.53004e-18
6893.99551 9.37257e-18
6895.99851 9.46863e-18
6898.00151 9.41086e-18
6900.00451 9.46301e-18
6901.99749 9.57300e-18
6904.00049 9.49577e-18
6906.00349 9.46531e-18
6907.99647 9.31591e-18
6909.99947 9.22180e-18
6912.00248 9.25195e-18
6913.99546 9.44668e-18
6915.99846 9.41775e-18
6918.00146 9.30679e-18
6920.00446 9.23404e-18
6921.99745 9.30367e-18
6924.00045 9.48578e-18
6926.00345 9.44763e-18
6927.99643 9.22707e-18
6929.99943 9.38390e-18
6932.00243 9.47828e-18
6933.99542 9.35267e-18
6935.99842 9.27509e-18
6938.00141 9.31858e-18
6940.00442 9.19308e-18
6941.99740 9.10910e-18
6944.00040 9.38135e-18
6946.00340 9.23242e-18
6947.99639 9.17611e-18
6949.99939 9.23909e-18
6952.00239 9.14571e-18
6953.99537 9.12100e-18
6955.99837 9.16709e-18
6958.00137 9.01913e-18
6960.00437 9.10117e-18
6961.99736 9.12401e-18
6964.00036 8.98213e-18
6966.00335 9.01933e-18
6967.99634 9.08460e-18
6969.99934 9.16261e-18
6972.00234 9.16980e-18
6973.99533 8.94258e-18
6975.99833 8.99871e-18
6978.00133 8.87713e-18
6980.00433 9.01065e-18
6981.99731 9.00458e-18
6984.00031 8.87463e-18
6986.00331 8.92977e-18
6987.99629 9.04647e-18
6989.99930 9.04315e-18
6992.00230 8.90175e-18
6993.99528 9.02632e-18
6995.99828 8.98244e-18
6998.00128 8.93109e-18
7000.00428 8.95699e-18
7001.99727 8.80964e-18
7004.00027 8.90509e-18
7006.00327 8.81696e-18
7007.99625 8.88268e-18
7009.99925 8.80463e-18
7012.00225 8.85826e-18
7013.99524 8.76873e-18
7015.99824 8.89244e-18
7018.00124 8.65453e-18
7020.00424 8.66117e-18
7021.99722 8.98460e-18
7024.00022 8.81850e-18
7026.00322 8.75888e-18
7027.99621 8.57508e-18
7029.99921 8.70373e-18
7032.00221 8.63374e-18
7033.99519 8.81619e-18
7035.99819 8.64158e-18
7038.00119 8.73068e-18
7040.00419 8.80986e-18
7041.99718 8.74308e-18
7044.00018 8.81077e-18
7046.00317 8.65237e-18
7047.99616 8.67984e-18
7049.99916 8.63220e-18
7052.00216 8.74475e-18
7053.99515 8.73964e-18
7055.99815 8.60632e-18
7058.00115 8.51583e-18
7060.00415 8.52481e-18
7061.99713 8.66754e-18
7064.00013 8.62704e-18
7066.00313 8.56055e-18
7067.99611 8.63441e-18
7069.99912 8.42915e-18
7072.00212 8.53643e-18
7073.99510 8.61665e-18
7075.99810 8.61388e-18
7078.00110 8.53993e-18
7080.00410 8.50388e-18
7081.99709 8.46946e-18
7084.00009 8.61931e-18
7086.00309 8.51976e-18
7087.99607 8.44382e-18
7089.99907 8.44909e-18
7092.00207 8.61748e-18
7094.00507 8.44084e-18
7095.99806 8.39555e-18
7098.00106 8.52425e-18
7100.00406 8.38807e-18
7101.99704 8.36134e-18
7104.00004 8.48461e-18
7106.00304 8.43732e-18
7107.99603 8.39045e-18
7109.99903 8.42383e-18
7112.00203 8.27962e-18
7113.99501 8.30540e-18
7115.99801 8.29966e-18
7118.00101 8.26402e-18
7120.00401 8.44728e-18
7121.99700 8.51558e-18
7124.00000 8.42769e-18
7126.00300 8.40169e-18
7127.99598 8.22911e-18
7129.99898 8.35294e-18
7132.00198 8.49219e-18
7133.99497 8.45720e-18
7135.99797 8.24740e-18
7138.00097 8.38631e-18
7140.00397 8.39835e-18
7141.99695 8.36677e-18
7143.99995 8.44661e-18
7146.00295 8.29479e-18
7147.99593 8.29741e-18
7149.99894 8.36935e-18
7152.00194 8.17795e-18
7154.00493 8.15742e-18
7155.99792 8.18502e-18
7158.00092 8.08116e-18
7160.00392 8.17104e-18
7161.99691 8.20291e-18
7163.99991 8.30011e-18
7166.00291 8.15320e-18
7167.99589 8.27406e-18
7169.99889 8.30111e-18
7172.00189 8.26570e-18
7173.99488 8.19847e-18
7175.99788 8.37067e-18
7178.00088 8.15368e-18
7180.00388 8.05044e-18
7181.99686 8.09670e-18
7183.99986 8.20087e-18
7186.00286 8.35285e-18
7187.99585 8.16030e-18
7189.99885 8.13284e-18
7192.00184 8.09690e-18
7194.00485 8.10906e-18
7195.99783 8.11462e-18
7198.00083 8.01593e-18
7200.00383 7.94825e-18
7201.99682 8.08725e-18
7203.99982 8.12119e-18
7206.00282 8.32386e-18
7207.99580 8.12246e-18
7209.99880 8.12640e-18
7212.00180 8.13831e-18
7214.00480 7.87270e-18
7215.99778 8.03033e-18
7218.00079 8.02886e-18
7220.00378 8.11748e-18
7221.99677 8.02640e-18
7223.99977 7.91053e-18
7226.00277 7.99459e-18
7227.99576 7.84466e-18
7229.99876 7.99327e-18
7232.00176 8.15252e-18
7234.00476 8.00801e-18
7235.99774 7.87237e-18
7238.00074 7.97280e-18
7240.00374 7.94038e-18
7241.99672 7.99741e-18
7243.99972 8.04687e-18
7246.00273 7.97541e-18
7247.99571 7.91757e-18
7249.99871 7.85442e-18
7252.00171 7.83882e-18
7254.00471 8.06435e-18
7255.99770 7.91652e-18
7258.00070 8.01522e-18
7260.00370 7.84425e-18
7261.99668 7.91600e-18
7263.99968 7.97127e-18
7266.00268 7.93891e-18
7267.99567 7.77064e-18
7269.99867 7.90371e-18
7272.00166 7.86016e-18
7274.00467 8.00782e-18
7275.99765 7.83918e-18
7278.00065 7.86564e-18
7280.00365 7.86758e-18
7281.99664 7.94548e-18
7283.99964 7.72997e-18
7286.00264 7.73757e-18
7287.99562 7.79054e-18
7289.99862 7.83741e-18
7292.00162 7.92296e-18
7294.00462 7.83282e-18
7295.99761 7.71606e-18
7298.00061 7.68312e-18
7300.00360 7.65197e-18
7301.99659 7.90099e-18
7303.99959 7.88162e-18
7306.00259 7.71047e-18
7307.99558 7.76703e-18
7309.99858 7.75633e-18
7312.00158 7.69064e-18
7314.00458 7.62870e-18
7315.99756 7.74842e-18
7318.00056 7.72335e-18
7320.00356 7.70254e-18
7321.99654 7.63929e-18
7323.99955 7.62333e-18
7326.00255 7.75332e-18
7327.99553 7.79932e-18
7329.99853 7.71234e-18
7332.00153 7.77211e-18
7334.00453 7.76950e-18
7335.99752 7.72275e-18
7338.00052 7.52660e-18
7340.00352 7.49797e-18
7341.99650 7.62020e-18
7343.99950 7.62099e-18
7346.00250 7.59692e-18
7347.99549 7.59516e-18
7349.99849 7.53410e-18
7352.00148 7.64794e-18
7354.00449 7.59287e-18
7355.99747 7.57237e-18
7358.00047 7.60607e-18
7360.00347 7.46167e-18
7361.99646 7.55104e-18
7363.99946 7.52260e-18
7366.00246 7.52803e-18
7367.99544 7.40804e-18
7369.99844 7.58920e-18
7372.00144 7.50543e-18
7374.00444 7.56504e-18
7375.99743 7.45446e-18
7378.00043 7.58936e-18
7380.00342 7.54490e-18
7381.99641 7.55020e-18
7383.99941 7.48042e-18
7386.00241 7.56055e-18
7387.99540 7.38315e-18
7389.99840 7.30042e-18
7392.00140 7.47452e-18
7394.00440 7.36575e-18
7395.99738 7.52174e-18
7398.00038 7.54378e-18
7400.00338 7.38200e-18
7401.99636 7.33522e-18
7403.99937 7.37778e-18
7406.00237 7.37667e-18
7407.99535 7.50680e-18
7409.99835 7.51350e-18
7412.00135 7.29798e-18
7414.00435 7.31501e-18
7415.99734 7.32018e-18
7418.00034 7.33551e-18
7420.00334 7.34642e-18
7421.99632 7.30390e-18
7423.99932 7.22410e-18
7426.00232 7.19582e-18
7427.99531 7.27229e-18
7429.99831 7.23997e-18
7432.00131 7.41210e-18
7434.00431 7.40398e-18
7435.99729 7.54955e-18
7438.00029 7.39419e-18
7440.00329 7.30189e-18
7441.99628 7.25756e-18
7443.99928 7.20101e-18
7446.00228 7.33124e-18
7447.99526 7.37173e-18
7449.99826 7.29774e-18
7452.00126 7.34238e-18
7454.00426 7.30103e-18
7455.99725 7.18795e-18
7458.00025 7.34015e-18
7460.00325 7.44387e-18
7461.99623 7.36572e-18
7463.99923 7.32035e-18
7466.00223 7.36312e-18
7467.99522 7.47255e-18
7469.99822 7.34311e-18
7472.00122 7.35248e-18
7474.00422 7.24410e-18
7475.99720 7.24002e-18
7478.00020 7.31808e-18
7480.00320 7.26198e-18
7481.99618 7.40937e-18
7483.99919 7.22026e-18
7486.00219 7.39085e-18
7487.99517 7.25780e-18
7489.99817 7.31311e-18
7492.00117 7.30101e-18
7494.00417 7.34770e-18
7495.99716 7.35724e-18
7498.00016 7.44558e-18
7500.00316 7.30962e-18
7501.99614 7.31046e-18
7503.99914 7.26350e-18
7506.00214 7.39374e-18
7507.99513 7.38181e-18
7509.99813 7.28468e-18
7512.00113 7.32360e-18
7514.00413 7.32784e-18
7515.99711 7.27308e-18
7518.00011 7.23130e-18
7520.00311 7.45544e-18
7521.99610 7.39068e-18
7523.99910 7.39609e-18
7526.00209 7.45425e-18
7527.99508 7.40052e-18
7529.99808 7.13951e-18
7532.00108 7.31112e-18
7534.00408 7.23612e-18
7535.99707 7.22699e-18
7538.00007 7.24225e-18
7540.00307 7.31786e-18
7541.99605 7.28763e-18
7543.99905 7.13731e-18
7546.00205 7.31444e-18
7547.99503 7.23771e-18
7549.99803 7.15522e-18
7552.00104 7.17276e-18
7554.00403 7.27108e-18
7555.99702 7.24908e-18
7558.00002 7.13990e-18
7560.00302 7.16282e-18
7561.99601 7.18205e-18
7563.99901 7.09102e-18
7566.00201 7.15496e-18
7568.00501 7.28766e-18
7569.99799 7.32096e-18
7572.00099 7.10808e-18
7574.00399 7.09604e-18
7575.99698 7.21102e-18
7577.99997 7.02558e-18
7580.00298 7.13801e-18
7581.99596 7.32211e-18
7583.99896 7.19891e-18
7586.00196 7.20157e-18
7587.99495 7.29234e-18
7589.99795 7.34803e-18
7592.00095 7.20845e-18
7594.00395 7.19688e-18
7595.99693 7.42363e-18
7597.99993 7.49380e-18
7600.00293 7.36728e-18
7601.99592 7.30729e-18
7603.99892 7.34074e-18
7606.00191 7.07364e-18
7607.99490 6.98166e-18
7609.99790 7.10034e-18
7612.00090 7.07819e-18
7614.00390 6.80762e-18
7615.99689 7.15537e-18
7617.99989 7.15697e-18
7620.00289 7.06145e-18
7621.99587 7.18773e-18
7623.99887 7.27803e-18
7626.00187 7.10508e-18
7628.00487 7.16891e-18
7629.99786 7.15828e-18
7632.00086 7.28187e-18
7634.00385 7.07521e-18
7635.99684 7.06585e-18
7637.99984 6.94974e-18
7640.00284 7.18972e-18
7641.99583 7.03540e-18
7643.99883 7.18704e-18
7646.00183 7.06950e-18
7647.99481 6.84460e-18
7649.99781 7.19446e-18
7652.00081 6.96970e-18
7654.00381 7.07637e-18
7655.99680 7.18715e-18
7657.99980 6.84757e-18
7660.00280 7.10601e-18
7661.99578 7.17717e-18
7663.99878 6.83814e-18
7666.00178 7.03288e-18
7668.00478 7.08111e-18
7669.99777 6.97982e-18
7672.00077 7.17717e-18
7674.00377 6.91496e-18
7675.99675 6.94639e-18
7677.99975 7.11491e-18
7680.00275 6.89820e-18
7681.99574 7.06096e-18
7683.99874 7.09260e-18
7686.00173 6.97019e-18
7688.00474 7.02584e-18
7689.99772 7.02190e-18
7692.00072 6.97026e-18
7694.00372 7.00519e-18
7695.99671 6.99774e-18
7697.99971 7.02733e-18
7700.00271 6.80461e-18
7701.99569 6.94098e-18
7703.99869 6.91471e-18
7706.00169 6.87023e-18
7708.00469 7.03800e-18
7709.99768 7.05042e-18
7712.00068 7.11011e-18
7714.00367 6.91550e-18
7715.99666 6.93148e-18
7717.99966 6.84828e-18
7720.00266 6.99417e-18
7721.99565 7.03791e-18
7723.99865 6.98114e-18
7726.00165 7.06660e-18
7728.00465 6.83560e-18
7729.99763 6.84713e-18
7732.00063 6.94177e-18
7734.00363 6.91078e-18
7735.99662 6.86721e-18
7737.99962 6.95380e-18
7740.00262 7.04152e-18
7741.99560 6.83525e-18
7743.99860 6.83724e-18
7746.00160 6.91702e-18
7748.00460 7.00161e-18
7749.99759 6.83981e-18
7752.00059 7.00853e-18
7754.00359 6.90847e-18
7755.99657 6.79186e-18
7757.99957 6.87179e-18
7760.00257 6.88898e-18
7761.99556 6.93600e-18
7763.99856 6.89747e-18
7766.00156 6.91027e-18
7768.00456 6.71012e-18
7769.99754 6.66729e-18
7772.00054 6.94785e-18
7774.00354 6.88157e-18
7775.99653 6.70460e-18
7777.99953 6.90057e-18
7780.00253 6.95674e-18
7781.99551 6.95213e-18
7783.99851 6.63109e-18
7786.00151 6.81112e-18
7788.00451 6.80263e-18
7789.99750 6.82176e-18
7792.00050 6.85862e-18
7794.00349 6.76247e-18
7795.99648 6.77548e-18
7797.99948 6.85490e-18
7800.00248 6.73026e-18
7801.99547 6.72519e-18
7803.99847 6.66381e-18
7806.00147 6.68252e-18
7808.00447 6.71177e-18
7809.99745 6.59155e-18
7812.00045 6.89317e-18
7814.00345 6.72660e-18
7815.99644 6.75167e-18
7817.99944 6.68680e-18
7820.00244 6.69849e-18
7821.99542 6.72276e-18
7823.99842 6.61354e-18
7826.00142 6.64718e-18
7828.00442 6.70745e-18
7829.99741 6.64926e-18
7832.00041 6.64057e-18
7834.00341 6.61964e-18
7835.99639 6.68016e-18
7837.99939 6.61564e-18
7840.00239 6.60181e-18
7841.99538 6.54025e-18
7843.99838 6.60258e-18
7846.00138 6.63747e-18
7848.00438 6.54150e-18
7849.99736 6.69144e-18
7852.00036 6.64289e-18
7854.00336 6.50191e-18
7855.99634 6.58033e-18
7857.99935 6.81234e-18
7860.00234 6.67289e-18
7861.99533 6.71672e-18
7863.99833 6.67454e-18
7866.00133 6.76700e-18
7868.00433 6.58210e-18
7869.99732 6.56739e-18
7872.00032 6.57528e-18
7874.00332 6.57714e-18
7875.99630 6.57027e-18
7877.99930 6.61089e-18
7880.00230 6.61996e-18
7881.99528 6.79664e-18
7883.99828 6.68440e-18
7886.00129 6.67032e-18
7888.00428 6.75254e-18
7889.99727 6.57651e-18
7892.00027 6.49018e-18
7894.00327 6.63180e-18
7895.99626 6.56034e-18
7897.99926 6.64403e-18
7900.00226 6.58101e-18
7901.99524 6.58937e-18
7903.99824 6.59460e-18
7906.00124 6.60995e-18
7908.00424 6.72995e-18
7909.99723 6.46960e-18
7912.00022 6.60516e-18
7914.00323 6.57271e-18
7915.99621 6.60007e-18
7917.99921 6.51907e-18
7920.00221 6.63409e-18
7921.99520 6.52347e-18
7923.99820 6.68913e-18
7926.00120 6.54557e-18
7928.00420 6.53592e-18
7929.99718 6.59892e-18
7932.00018 6.54289e-18
7934.00318 6.58334e-18
7935.99617 6.48413e-18
7937.99917 6.62995e-18
7940.00216 6.52177e-18
7941.99515 6.48723e-18
7943.99815 6.51201e-18
7946.00115 6.48986e-18
7948.00415 6.52125e-18
7949.99714 6.53415e-18
7952.00014 6.63445e-18
7954.00314 6.43030e-18
7955.99612 6.47487e-18
7957.99912 6.54644e-18
7960.00212 6.40165e-18
7961.99510 6.52661e-18
7963.99811 6.57872e-18
7966.00111 6.48422e-18
7968.00410 6.36944e-18
7969.99709 6.28599e-18
7972.00009 6.51971e-18
7974.00309 6.48674e-18
7975.99608 6.41210e-18
7977.99908 6.42908e-18
7980.00208 6.54146e-18
7981.99506 6.53436e-18
7983.99806 6.47942e-18
7986.00106 6.61406e-18
7988.00406 6.57328e-18
7989.99705 6.64986e-18
7992.00004 6.72113e-18
7994.00305 6.30874e-18
7995.99603 6.36023e-18
7997.99903 6.27303e-18
8000.00203 6.27983e-18
8002.00503 6.38237e-18
8003.99802 6.22855e-18
8006.00102 6.21696e-18
8008.00402 6.31962e-18
8009.99700 6.28601e-18
8012.00000 6.21781e-18
8014.00300 6.16388e-18
8015.99599 6.17934e-18
8017.99899 6.28599e-18
8020.00198 6.25970e-18
8021.99497 6.17039e-18
8023.99797 6.24076e-18
8026.00097 6.29572e-18
8028.00397 6.34799e-18
8029.99696 6.26076e-18
8031.99996 6.17541e-18
8034.00296 6.16900e-18
8035.99594 6.27241e-18
8037.99894 6.15482e-18
8040.00194 6.12548e-18
8042.00494 6.09219e-18
8043.99793 5.98920e-18
8046.00093 5.96980e-18
8048.00392 5.99977e-18
8049.99691 6.00951e-18
8051.99991 6.02286e-18
8054.00291 6.01443e-18
8055.99590 5.95020e-18
8057.99890 5.93303e-18
8060.00190 5.97216e-18
8061.99488 6.02185e-18
8063.99788 5.93231e-18
8066.00088 5.99532e-18
8068.00388 6.03559e-18
8069.99687 5.98352e-18
8071.99987 5.90425e-18
8074.00287 5.89617e-18
8075.99585 5.81270e-18
8077.99885 5.91602e-18
8080.00185 5.81075e-18
8082.00485 5.98056e-18
8083.99784 5.87882e-18
8086.00084 5.83287e-18
8088.00384 5.83328e-18
8089.99682 5.67662e-18
8091.99982 5.89092e-18
8094.00282 5.79012e-18
8095.99581 5.70299e-18
8097.99881 5.72971e-18
8100.00181 5.84498e-18
8102.00481 5.74915e-18
8103.99779 5.65851e-18
8106.00079 5.84927e-18
8108.00379 5.77976e-18
8109.99678 5.72836e-18
8111.99978 5.70168e-18
8114.00278 5.87818e-18
8115.99576 5.70338e-18
8117.99876 5.74010e-18
8120.00176 5.59700e-18
8121.99474 5.64140e-18
8123.99775 5.70365e-18
8126.00075 5.67248e-18
8128.00374 5.66655e-18
8129.99673 5.62865e-18
8131.99973 5.65801e-18
8134.00273 5.90956e-18
8135.99572 5.77561e-18
8137.99872 5.67606e-18
8140.00172 5.85056e-18
8142.00472 5.67978e-18
8143.99770 5.71262e-18
8146.00070 5.65920e-18
8148.00370 5.66016e-18
8149.99669 5.70870e-18
8151.99969 5.56890e-18
8154.00269 5.51171e-18
8155.99567 5.62957e-18
8157.99867 5.80621e-18
8160.00167 5.54034e-18
8162.00467 5.55302e-18
8163.99766 5.67561e-18
8166.00066 5.60445e-18
8168.00366 5.65361e-18
8169.99664 5.60214e-18
8171.99964 5.72194e-18
8174.00264 5.79308e-18
8175.99563 5.56918e-18
8177.99863 5.59268e-18
8180.00163 5.61535e-18
8182.00463 5.54597e-18
8183.99761 5.55692e-18
8186.00061 5.57182e-18
8188.00361 5.59209e-18
8189.99659 5.66729e-18
8191.99960 5.74383e-18
8194.00259 5.62549e-18
8195.99558 5.57895e-18
8197.99858 5.63602e-18
8200.00158 5.65959e-18
8202.00458 5.54668e-18
8203.99756 5.52364e-18
8206.00057 5.59606e-18
8208.00356 5.54765e-18
8209.99655 5.52805e-18
8211.99955 5.59006e-18
8214.00255 5.66511e-18
8215.99554 5.53397e-18
8217.99854 5.60608e-18
8220.00154 5.53993e-18
8222.00454 5.60419e-18
8223.99752 5.61946e-18
8226.00052 5.54522e-18
8228.00352 5.72931e-18
8229.99651 5.71718e-18
8231.99950 5.57077e-18
8234.00251 5.60121e-18
8235.99549 5.52979e-18
8237.99849 5.54636e-18
8240.00149 5.63946e-18
8242.00449 5.55236e-18
8243.99748 5.54427e-18
8246.00048 5.55115e-18
8248.00347 5.59128e-18
8249.99646 5.64470e-18
8251.99946 5.67455e-18
8254.00246 5.67320e-18
8255.99545 5.64880e-18
8257.99844 5.61245e-18
8260.00144 5.64587e-18
8261.99443 5.61333e-18
8263.99743 5.63614e-18
8266.00043 5.66703e-18
8268.00343 5.67734e-18
8269.99642 5.67562e-18
8271.99942 5.81223e-18
8274.00242 5.60584e-18
8275.99540 5.75744e-18
8277.99840 5.75177e-18
8280.00140 5.67826e-18
8282.00440 5.78936e-18
8283.99739 5.88386e-18
8286.00039 5.65391e-18
8288.00338 5.57689e-18
8289.99637 5.70985e-18
8291.99937 5.69058e-18
8294.00237 5.77308e-18
8295.99536 5.79105e-18
8297.99835 5.70017e-18
8300.00136 5.87212e-18
8302.00436 5.87509e-18
8303.99734 5.69736e-18
8306.00034 5.84114e-18
8308.00334 5.84776e-18
8309.99633 5.77394e-18
8311.99932 5.82986e-18
8314.00232 5.85130e-18
8315.99531 5.84937e-18
8317.99831 5.80560e-18
8320.00131 5.88212e-18
8322.00431 5.99989e-18
8323.99730 5.84806e-18
8326.00030 5.88202e-18
8328.00330 5.91607e-18
8329.99628 5.98336e-18
8331.99928 5.83984e-18
8334.00228 5.83368e-18
8335.99527 5.91525e-18
8337.99827 5.86302e-18
8340.00127 5.97947e-18
8342.00427 5.97980e-18
8343.99725 6.07492e-18
8346.00025 6.10514e-18
8348.00325 5.85756e-18
8349.99624 6.06095e-18
8351.99924 5.97198e-18
8354.00223 6.08643e-18
8355.99522 6.03292e-18
8357.99822 6.06008e-18
8360.00122 5.98858e-18
8362.00422 5.95634e-18
8363.99720 5.96533e-18
8366.00021 6.11769e-18
8368.00320 6.10638e-18
8369.99619 6.09712e-18
8371.99919 5.98440e-18
8374.00219 6.05993e-18
8376.00519 6.04474e-18
8377.99818 5.94391e-18
8380.00118 6.13834e-18
8382.00418 6.09142e-18
8383.99716 6.10748e-18
8386.00016 6.09262e-18
8388.00316 6.09616e-18
8389.99615 6.05519e-18
8391.99915 6.03887e-18
8394.00215 6.04769e-18
8395.99513 6.21877e-18
8397.99813 6.13257e-18
8400.00113 6.11809e-18
8402.00413 6.26057e-18
8403.99712 6.11828e-18
8406.00012 6.15295e-18
8408.00311 6.03088e-18
8409.99610 6.06191e-18
8411.99910 6.15481e-18
8414.00210 6.13519e-18
8415.99509 6.23510e-18
8417.99808 6.18837e-18
8420.00108 6.09765e-18
8422.00409 6.19998e-18
8423.99707 6.23711e-18
8426.00007 6.32694e-18
8428.00307 6.05940e-18
8429.99606 6.08733e-18
8431.99906 6.14763e-18
8434.00206 6.08155e-18
8436.00506 6.27277e-18
8437.99804 6.17634e-18
8440.00104 6.21145e-18
8442.00404 6.16846e-18
8443.99703 6.23318e-18
8446.00003 6.13157e-18
8448.00302 6.22526e-18
8449.99601 6.17483e-18
8451.99901 6.24557e-18
8454.00201 6.23895e-18
8455.99500 6.18682e-18
8457.99799 6.09890e-18
8460.00100 6.19897e-18
8462.00400 6.34200e-18
8463.99698 6.12263e-18
8465.99998 6.13157e-18
8468.00298 6.29579e-18
8469.99597 6.10214e-18
8471.99897 6.09307e-18
8474.00196 6.12345e-18
8475.99495 6.11626e-18
8477.99795 6.16862e-18
8480.00095 6.19001e-18
8482.00395 6.22912e-18
8483.99694 6.27040e-18
8485.99994 6.09536e-18
8488.00294 6.12268e-18
8489.99592 6.20362e-18
8491.99892 6.18815e-18
8494.00192 6.22316e-18
8496.00492 6.28850e-18
8497.99791 6.15062e-18
8500.00091 6.27562e-18
8502.00391 6.20710e-18
8503.99689 6.11131e-18
8505.99989 6.11331e-18
8508.00289 6.16052e-18
8509.99588 6.12162e-18
8511.99888 6.26540e-18
8514.00187 6.22141e-18
8516.00488 6.23277e-18
8517.99786 6.15086e-18
8520.00086 6.18837e-18
8522.00386 6.13758e-18
8523.99684 6.16907e-18
8525.99985 6.27920e-18
8528.00285 6.16381e-18
8529.99583 6.18001e-18
8531.99883 6.20277e-18
8534.00183 6.14585e-18
8535.99482 6.18686e-18
8537.99781 6.29714e-18
8540.00081 6.19830e-18
8542.00382 6.03358e-18
8543.99680 6.20431e-18
8545.99980 6.08870e-18
8548.00280 6.26498e-18
8549.99579 6.14820e-18
8551.99879 6.13184e-18
8554.00179 6.12512e-18
8556.00479 6.07144e-18
8557.99777 6.09115e-18
8560.00077 6.12467e-18
8562.00377 6.24294e-18
8563.99676 6.12848e-18
8565.99976 6.15407e-18
8568.00276 6.10123e-18
8569.99574 6.07882e-18
8571.99874 6.04686e-18
8574.00174 6.05525e-18
8576.00474 6.19833e-18
8577.99772 6.01933e-18
8580.00072 6.05256e-18
8582.00373 6.08812e-18
8583.99671 5.97625e-18
8585.99971 6.10562e-18
8588.00271 6.04308e-18
8589.99569 6.08886e-18
8591.99870 6.12504e-18
8594.00169 5.93874e-18
8595.99468 6.07081e-18
8597.99768 6.07670e-18
8600.00068 5.99118e-18
8602.00368 6.00146e-18
8603.99667 5.95528e-18
8605.99967 5.87753e-18
8608.00267 5.95960e-18
8609.99565 6.02094e-18
8611.99865 6.03647e-18
8614.00165 6.02688e-18
8616.00465 5.96637e-18
8617.99764 6.02328e-18
8620.00064 5.98033e-18
8622.00364 5.92249e-18
8623.99662 5.94602e-18
8625.99962 5.98366e-18
8628.00262 5.88595e-18
8629.99561 5.99449e-18
8631.99861 5.90392e-18
8634.00160 5.87457e-18
8636.00461 5.94269e-18
8637.99759 5.99804e-18
8640.00059 5.87875e-18
8642.00359 5.96725e-18
8643.99657 5.96919e-18
8645.99957 5.98179e-18
8648.00258 5.81490e-18
8649.99556 5.78256e-18
8651.99856 5.97863e-18
8654.00156 5.90752e-18
8656.00456 5.85438e-18
8657.99755 6.00699e-18
8660.00055 5.83957e-18
8662.00355 5.90442e-18
8663.99653 5.80672e-18
8665.99953 5.96153e-18
8668.00253 5.81643e-18
8669.99552 5.76426e-18
8671.99852 5.91497e-18
8674.00151 5.90762e-18
8676.00452 5.76675e-18
8677.99750 5.77573e-18
8680.00050 5.85161e-18
8682.00350 5.85868e-18
8683.99648 5.84691e-18
8685.99949 5.88519e-18
8688.00249 5.76377e-18
8689.99547 5.80121e-18
8691.99847 5.74527e-18
8694.00147 5.83018e-18
8696.00447 5.90921e-18
8697.99746 5.88753e-18
8700.00045 5.76570e-18
8702.00346 5.69948e-18
8703.99644 5.79042e-18
8705.99944 5.76849e-18
8708.00244 5.61619e-18
8709.99543 5.72229e-18
8711.99843 5.74611e-18
8714.00143 5.69889e-18
8716.00443 5.81270e-18
8717.99741 5.84055e-18
8720.00041 5.73139e-18
8722.00341 5.76958e-18
8723.99640 5.82763e-18
8725.99940 5.88469e-18
8728.00240 5.67289e-18
8729.99538 5.65876e-18
8731.99838 5.62093e-18
8734.00138 5.62729e-18
8736.00438 5.68576e-18
8737.99737 5.57783e-18
8740.00036 5.67970e-18
8742.00337 5.71122e-18
8743.99635 5.65465e-18
8745.99935 5.66218e-18
8748.00235 5.61598e-18
8749.99533 5.72109e-18
8751.99834 5.72203e-18
8754.00133 5.64782e-18
8756.00433 5.53275e-18
8757.99732 5.49344e-18
8760.00032 5.61681e-18
8762.00332 5.59919e-18
8763.99631 5.59273e-18
8765.99931 5.51258e-18
8768.00231 5.58693e-18
8769.99529 5.53555e-18
8771.99829 5.63147e-18
8774.00129 5.57980e-18
8776.00429 5.46044e-18
8777.99728 5.46006e-18
8780.00028 5.63078e-18
8782.00328 5.44749e-18
8783.99626 5.40744e-18
8785.99926 5.52171e-18
8788.00226 5.42355e-18
8789.99525 5.30146e-18
8791.99825 5.48399e-18
8794.00125 5.41469e-18
8796.00425 5.45202e-18
8797.99723 5.42788e-18
8800.00023 5.35209e-18
8802.00323 5.39451e-18
8803.99621 5.44245e-18
8805.99921 5.59515e-18
8808.00222 5.43513e-18
8809.99520 5.43543e-18
8811.99820 5.36893e-18
8814.00120 5.40510e-18
8816.00420 5.39041e-18
8817.99719 5.51367e-18
8820.00019 5.45175e-18
8822.00319 5.37736e-18
8823.99617 5.44776e-18
8825.99917 5.44411e-18
8828.00217 5.37334e-18
8829.99516 5.41407e-18
8831.99816 5.34942e-18
8834.00116 5.43019e-18
8836.00416 5.41388e-18
8837.99714 5.34454e-18
8840.00014 5.29004e-18
8842.00314 5.29621e-18
8843.99612 5.40380e-18
8845.99913 5.36220e-18
8848.00213 5.44628e-18
8850.00512 5.34646e-18
8851.99811 5.37304e-18
8854.00111 5.41893e-18
8856.00411 5.47380e-18
8857.99710 5.47531e-18
8860.00009 5.56370e-18
8862.00310 5.55971e-18
8863.99608 5.70641e-18
8865.99908 5.58938e-18
8868.00208 5.53336e-18
8869.99506 5.47922e-18
8871.99806 5.46945e-18
8874.00107 5.46613e-18
8876.00406 5.37848e-18
8877.99705 5.38082e-18
8880.00005 5.33692e-18
8882.00305 5.31693e-18
8883.99604 5.34189e-18
8885.99904 5.34756e-18
8888.00204 5.31709e-18
8889.99502 5.25715e-18
8891.99802 5.18236e-18
8894.00102 5.31830e-18
8896.00402 5.32214e-18
8897.99701 5.27284e-18
8900.00000 5.32928e-18
8902.00301 5.19047e-18
8903.99599 5.29804e-18
8905.99899 5.19043e-18
8908.00199 5.23983e-18
8910.00499 5.28840e-18
8911.99798 5.28297e-18
8914.00098 5.22687e-18
8916.00397 5.34515e-18
8917.99696 5.44443e-18
8919.99996 5.20806e-18
8922.00296 5.19760e-18
8923.99595 5.20652e-18
8925.99894 5.21356e-18
8928.00194 5.27726e-18
8929.99493 5.24278e-18
8931.99793 5.17227e-18
8934.00093 5.13509e-18
8936.00393 5.13399e-18
8937.99692 5.09408e-18
8939.99992 5.14023e-18
8942.00292 5.07160e-18
8943.99590 5.21017e-18
8945.99890 5.20213e-18
8948.00190 5.09411e-18
8949.99489 5.06526e-18
8951.99789 5.04559e-18
8954.00089 5.15672e-18
8956.00389 5.19194e-18
8957.99687 5.15457e-18
8959.99987 5.05400e-18
8962.00287 5.07497e-18
8963.99586 5.14135e-18
8965.99885 5.20204e-18
8968.00186 5.07501e-18
8970.00486 5.14043e-18
8971.99784 5.19704e-18
8974.00084 5.20820e-18
8976.00384 5.18147e-18
8977.99683 5.03302e-18
8979.99982 5.13982e-18
8982.00282 5.31685e-18
8983.99581 5.08973e-18
8985.99881 5.05084e-18
8988.00181 5.35656e-18
8990.00481 5.04317e-18
8991.99780 5.24454e-18
8994.00080 5.11800e-18
8996.00380 5.15691e-18
8997.99678 5.07694e-18
8999.99978 5.09944e-18
9002.00278 5.24247e-18
9003.99577 5.39883e-18
9005.99877 5.32460e-18
9008.00177 5.28338e-18
9009.99475 5.24321e-18
9011.99775 5.55646e-18
9014.00075 5.48003e-18
9016.00375 5.48877e-18
9017.99674 5.73215e-18
9019.99973 5.20814e-18
9022.00274 5.21320e-18
9023.99572 5.24043e-18
9025.99872 5.29179e-18
9028.00172 5.08964e-18
9030.00472 5.05853e-18
9031.99770 5.03585e-18
9034.00071 5.13101e-18
9036.00370 5.11386e-18
9037.99669 4.92169e-18
9039.99969 4.90268e-18
9042.00269 5.04903e-18
9043.99568 5.08136e-18
9045.99868 4.91081e-18
9048.00168 5.06367e-18
9050.00468 4.97843e-18
9051.99766 4.94567e-18
9054.00066 5.10380e-18
9056.00366 4.97419e-18
9057.99665 4.96493e-18
9059.99965 5.02986e-18
9062.00265 5.03517e-18
9063.99563 5.18456e-18
9065.99863 5.04899e-18
9068.00163 5.01001e-18
9070.00463 4.93608e-18
9071.99762 4.85144e-18
9074.00062 5.04915e-18
9076.00361 5.09377e-18
9077.99660 4.90786e-18
9079.99960 4.96879e-18
9082.00260 5.04010e-18
9083.99559 4.90699e-18
9085.99858 4.74970e-18
9088.00158 4.96407e-18
9090.00459 4.96029e-18
9091.99757 4.86036e-18
9094.00057 4.94182e-18
9096.00357 4.96414e-18
9097.99656 4.78321e-18
9099.99956 4.92289e-18
9102.00256 5.04701e-18
9103.99554 4.90471e-18
9105.99854 4.92243e-18
9108.00154 4.94226e-18
9110.00454 4.92903e-18
9111.99753 4.90276e-18
9114.00053 4.93620e-18
9116.00353 4.75725e-18
9117.99651 4.87749e-18
9119.99951 4.93193e-18
9122.00251 4.91085e-18
9123.99550 4.91052e-18
9125.99849 4.94429e-18
9128.00150 4.83368e-18
9130.00450 4.91558e-18
9131.99748 4.97801e-18
9134.00048 4.74096e-18
9136.00348 5.05268e-18
9137.99647 4.96701e-18
9139.99947 4.89641e-18
9142.00246 4.85215e-18
9143.99545 4.82008e-18
9145.99845 4.81220e-18
9148.00145 4.93582e-18
9150.00445 4.84572e-18
9151.99744 4.95768e-18
9154.00044 4.87015e-18
9156.00344 4.93669e-18
9157.99642 4.84494e-18
9159.99942 4.76978e-18
9162.00242 4.90118e-18
9163.99541 4.85187e-18
9165.99841 4.84851e-18
9168.00141 4.86469e-18
9170.00441 4.89131e-18
9171.99739 4.81459e-18
9174.00039 4.84827e-18
9176.00339 4.94913e-18
9177.99638 4.83372e-18
9179.99938 4.87224e-18
9182.00238 4.78114e-18
9183.99536 4.82344e-18
9185.99836 4.84753e-18
9188.00136 4.72504e-18
9190.00436 4.81669e-18
9191.99734 4.89576e-18
9194.00035 4.72377e-18
9196.00335 4.82126e-18
9197.99633 4.84294e-18
9199.99933 4.77706e-18
9202.00233 4.81231e-18
9203.99532 4.72101e-18
9205.99831 4.76750e-18
9208.00131 4.92642e-18
9210.00432 4.85316e-18
9211.99730 4.86759e-18
9214.00030 4.92426e-18
9216.00330 4.97658e-18
9217.99629 4.89719e-18
9219.99929 5.01427e-18
9222.00229 4.93173e-18
9223.99527 4.96647e-18
9225.99827 5.22311e-18
9228.00127 5.37524e-18
9230.00427 5.43629e-18
9231.99726 5.25220e-18
9234.00026 5.14393e-18
9236.00326 4.95313e-18
9237.99624 4.93336e-18
9239.99924 4.87649e-18
9242.00224 4.75961e-18
9243.99523 4.75017e-18
9245.99822 4.74967e-18
9248.00122 4.70525e-18
9250.00423 4.67330e-18
9251.99721 4.83241e-18
9254.00021 4.70464e-18
9256.00321 4.69176e-18
9257.99619 4.67648e-18
9259.99920 4.71399e-18
9262.00219 4.74147e-18
9263.99518 4.83422e-18
9265.99818 4.76928e-18
9268.00118 4.68736e-18
9270.00418 4.78235e-18
9271.99717 4.63392e-18
9274.00017 4.78236e-18
9276.00317 4.68660e-18
9277.99615 4.66001e-18
9279.99915 4.83384e-18
9282.00215 4.72681e-18
9283.99514 4.61516e-18
9285.99813 4.77472e-18
9288.00114 4.79457e-18
9290.00414 4.72116e-18
9291.99712 4.68774e-18
9294.00012 4.77201e-18
9296.00312 4.75540e-18
9297.99611 4.70159e-18
9299.99911 4.71411e-18
9302.00210 4.68222e-18
9303.99509 4.79197e-18
9305.99809 4.52005e-18
9308.00109 4.48940e-18
9310.00409 5.05806e-18
9311.99707 4.75288e-18
9314.00007 4.38467e-18
9316.00308 4.67643e-18
9317.99606 4.85546e-18
9319.99906 4.78779e-18
9322.00206 4.49942e-18
9324.00506 4.81770e-18
9325.99805 4.81647e-18
9328.00105 4.75351e-18
9330.00405 4.47680e-18
9331.99703 4.55754e-18
9334.00003 4.77549e-18
9336.00303 4.74211e-18
9337.99602 4.79306e-18
9339.99902 4.76076e-18
9342.00202 4.24963e-18
9343.99500 4.92966e-18
9345.99800 5.07382e-18
9348.00100 4.66682e-18
9350.00400 4.51965e-18
9351.99698 4.27617e-18
9353.99999 4.88844e-18
9356.00299 4.57273e-18
9357.99597 4.71341e-18
9359.99897 5.03288e-18
9362.00197 4.65359e-18
9363.99496 4.30694e-18
9365.99796 4.58119e-18
9368.00095 4.47122e-18
9370.00396 4.50030e-18
9371.99694 4.95676e-18
9373.99994 4.55440e-18
9376.00294 4.54683e-18
9377.99593 4.54738e-18
9379.99893 4.50711e-18
9382.00193 4.86458e-18
9384.00493 4.65439e-18
9385.99791 4.45221e-18
9388.00091 4.69312e-18
9390.00391 4.45335e-18
9391.99690 4.38704e-18
9393.99990 4.55712e-18
9396.00290 4.44088e-18
9397.99588 4.38071e-18
9399.99888 4.50358e-18
9402.00188 4.54491e-18
9404.00488 4.51482e-18
9405.99787 4.47758e-18
9408.00086 4.40056e-18
9410.00387 4.57488e-18
9411.99685 4.69729e-18
9413.99985 4.56373e-18
9416.00285 4.37467e-18
9417.99583 4.55907e-18
9419.99884 4.40561e-18
9422.00183 4.49983e-18
9423.99482 4.21431e-18
9425.99782 4.16308e-18
9428.00082 4.67845e-18
9430.00382 4.90119e-18
9431.99681 4.56793e-18
9433.99981 4.35179e-18
9436.00281 4.24623e-18
9437.99579 4.33944e-18
9439.99879 4.43861e-18
9442.00179 4.71489e-18
9444.00479 4.53667e-18
9445.99778 4.50507e-18
9448.00078 4.31482e-18
9450.00378 4.56261e-18
9451.99676 4.38465e-18
9453.99976 4.19706e-18
9456.00276 4.76904e-18
9457.99575 4.20922e-18
9459.99875 4.18131e-18
9462.00174 4.63596e-18
9464.00475 4.43096e-18
9465.99773 4.33954e-18
9468.00073 4.17215e-18
9470.00373 4.52769e-18
9471.99671 4.32655e-18
9473.99971 4.24614e-18
9476.00272 4.61717e-18
9477.99570 4.28697e-18
9479.99870 4.18430e-18
9482.00170 4.71922e-18
9483.99469 4.53531e-18
9485.99769 4.26354e-18
9488.00069 4.37409e-18
9490.00369 4.36558e-18
9491.99667 4.17639e-18
9493.99967 4.44810e-18
9496.00267 4.47045e-18
9497.99566 4.28304e-18
9499.99866 4.26850e-18
9502.00166 4.72619e-18
9504.00466 4.39849e-18
9505.99764 4.37526e-18
9508.00064 4.34935e-18
9510.00364 4.44259e-18
9511.99662 4.27940e-18
9513.99963 4.23466e-18
9516.00263 4.16107e-18
9517.99561 4.34881e-18
9519.99861 4.28228e-18
9522.00161 4.33147e-18
9524.00461 4.33310e-18
9525.99760 4.17981e-18
9528.00059 4.31390e-18
9530.00360 4.42401e-18
9531.99658 4.29182e-18
9533.99958 4.21579e-18
9536.00258 4.41156e-18
9537.99556 4.44884e-18
9539.99856 4.28883e-18
9542.00157 4.32097e-18
9544.00456 4.66572e-18
9545.99755 4.94877e-18
9548.00055 4.66599e-18
9550.00355 4.45125e-18
9551.99654 4.30965e-18
9553.99954 4.47013e-18
9556.00254 4.54916e-18
9557.99552 4.52188e-18
9559.99852 4.33903e-18
9562.00152 4.12169e-18
9564.00452 4.28644e-18
9565.99751 4.28013e-18
9568.00050 4.20759e-18
9570.00351 4.19591e-18
9571.99649 4.11311e-18
9573.99949 4.09662e-18
9576.00249 4.12327e-18
9577.99547 4.04391e-18
9579.99848 4.18076e-18
9582.00148 4.47564e-18
9584.00447 4.20870e-18
9585.99746 4.08129e-18
9588.00046 3.99379e-18
9590.00346 4.14618e-18
9591.99644 4.26652e-18
9593.99944 4.22942e-18
9596.00245 4.05389e-18
9597.99543 4.17424e-18
9599.99843 4.24358e-18
9602.00143 4.16127e-18
9604.00443 4.08065e-18
9605.99742 4.14936e-18
9608.00042 4.25130e-18
9610.00342 4.26769e-18
9611.99640 4.18840e-18
9613.99940 4.09975e-18
9616.00240 4.05956e-18
9617.99539 4.05681e-18
9619.99839 4.00914e-18
9622.00139 4.11285e-18
9624.00439 4.03442e-18
9625.99737 4.12696e-18
9628.00037 4.24840e-18
9630.00337 4.19921e-18
9631.99636 3.96631e-18
9633.99935 4.01536e-18
9636.00236 4.09802e-18
9637.99534 4.25499e-18
9639.99834 4.12768e-18
9642.00134 4.01171e-18
9644.00434 4.01761e-18
9645.99733 4.21218e-18
9648.00032 4.07088e-18
9650.00332 4.00595e-18
9651.99631 4.12652e-18
9653.99931 4.08164e-18
9656.00231 4.10804e-18
9657.99530 4.01940e-18
9659.99830 4.01717e-18
9662.00130 4.15773e-18
9664.00430 4.16866e-18
9665.99728 4.01757e-18
9668.00028 3.97816e-18
9670.00328 4.11572e-18
9671.99627 4.18246e-18
9673.99927 4.17120e-18
9676.00227 4.20498e-18
9677.99525 3.98759e-18
9679.99825 3.99151e-18
9682.00125 4.03536e-18
9684.00425 4.05006e-18
9685.99724 4.01421e-18
9688.00023 4.11675e-18
9690.00324 4.01060e-18
9691.99622 4.09227e-18
9693.99922 4.07301e-18
9696.00222 3.98136e-18
9697.99520 3.96916e-18
9699.99820 3.95781e-18
9702.00121 3.98918e-18
9704.00420 3.96833e-18
9705.99719 3.87672e-18
9708.00019 4.00876e-18
9710.00319 4.00132e-18
9711.99618 3.88747e-18
9713.99918 4.00138e-18
9716.00218 4.14999e-18
9717.99516 3.95386e-18
9719.99816 4.05397e-18
9722.00116 4.03379e-18
9724.00416 4.16854e-18
9725.99715 4.02095e-18
9728.00014 4.16862e-18
9730.00315 3.95490e-18
9731.99613 3.95513e-18
9733.99913 3.94964e-18
9736.00213 4.00724e-18
9738.00513 4.12262e-18
9739.99812 4.01846e-18
9742.00112 3.88816e-18
9744.00411 4.06125e-18
9745.99710 4.04728e-18
9748.00010 4.04377e-18
9750.00310 3.98853e-18
9751.99609 3.92028e-18
9753.99908 3.88394e-18
9756.00209 4.03817e-18
9757.99507 4.07751e-18
9759.99807 3.97934e-18
9762.00107 4.02710e-18
9764.00407 4.07800e-18
9765.99706 3.94502e-18
9768.00006 3.93172e-18
9770.00306 3.99157e-18
9771.99604 3.90551e-18
9773.99904 3.94701e-18
9776.00204 3.92587e-18
9777.99503 3.99304e-18
9779.99803 3.93148e-18
9782.00103 4.03052e-18
9784.00403 3.97294e-18
9785.99701 4.02868e-18
9788.00001 3.94030e-18
9790.00301 3.91738e-18
9791.99600 3.96557e-18
9793.99899 4.20237e-18
9796.00200 3.95797e-18
9798.00500 3.90698e-18
9799.99798 4.03538e-18
9802.00098 3.94189e-18
9804.00398 3.95969e-18
9805.99697 4.11176e-18
9807.99997 3.96537e-18
9810.00296 3.96145e-18
9811.99595 3.97012e-18
9813.99895 3.90595e-18
9816.00195 3.82852e-18
9817.99494 3.85612e-18
9819.99794 3.97430e-18
9822.00094 3.94247e-18
9824.00394 3.90287e-18
9825.99692 4.03395e-18
9827.99992 3.94625e-18
9830.00292 3.98835e-18
9831.99591 4.05337e-18
9833.99891 4.02412e-18
9836.00191 4.03552e-18
9837.99489 4.01070e-18
9839.99789 4.00610e-18
9842.00089 3.90422e-18
9844.00389 3.90195e-18
9845.99688 3.91890e-18
9847.99988 3.86987e-18
9850.00288 3.90234e-18
9851.99586 3.92867e-18
9853.99886 3.98072e-18
9856.00186 3.88115e-18
9858.00486 3.92055e-18
9859.99784 3.96359e-18
9862.00085 3.92779e-18
9864.00384 3.98157e-18
9865.99683 3.94641e-18
9867.99983 3.93549e-18
9870.00283 3.98255e-18
9871.99582 3.89494e-18
9873.99881 4.03919e-18
9876.00181 3.92328e-18
9878.00482 3.95261e-18
9879.99780 3.92657e-18
9882.00080 3.99875e-18
9884.00380 3.94437e-18
9885.99679 3.96625e-18
9887.99979 3.86207e-18
9890.00279 3.82412e-18
9891.99577 3.88298e-18
9893.99877 3.87201e-18
9896.00177 3.96338e-18
9897.99476 3.88662e-18
9899.99776 3.90353e-18
9902.00076 3.88336e-18
9904.00375 3.83809e-18
9905.99674 3.87848e-18
9907.99974 3.77162e-18
9910.00274 3.89146e-18
9911.99573 3.88143e-18
9913.99872 4.13354e-18
9916.00173 3.91738e-18
9918.00473 3.93889e-18
9919.99771 3.91074e-18
9922.00071 3.80154e-18
9924.00371 3.71868e-18
9925.99669 3.89502e-18
9927.99970 3.85264e-18
9930.00269 3.85390e-18
9931.99568 3.87958e-18
9933.99868 3.97737e-18
9936.00168 3.88414e-18
9938.00468 3.87433e-18
9939.99767 3.85752e-18
9942.00067 3.75858e-18
9944.00367 3.79200e-18
9945.99665 3.82536e-18
9947.99965 4.01887e-18
9950.00265 3.84375e-18
9951.99564 3.79075e-18
9953.99863 3.91163e-18
9956.00164 3.80202e-18
9957.99462 3.81046e-18
9959.99762 3.75601e-18
9962.00062 3.92804e-18
9964.00362 3.86438e-18
9965.99661 3.84938e-18
9967.99961 3.84901e-18
9970.00260 3.86375e-18
9971.99559 3.87895e-18
9973.99859 3.74886e-18
9976.00159 3.79463e-18
9978.00459 3.83335e-18
9979.99757 3.89344e-18
9982.00058 3.81776e-18
9984.00358 3.80107e-18
9985.99656 3.78948e-18
9987.99956 3.69472e-18
9990.00256 3.85192e-18
9991.99555 3.86111e-18
9993.99855 3.75007e-18
9996.00155 3.86356e-18
9998.00455 3.72396e-18
9999.99753 3.75596e-18
